trials.thisRepN	trials.thisTrialN	trials.thisN	trials.thisIndex	trials_2.thisRepN	trials_2.thisTrialN	trials_2.thisN	trials_2.thisIndex	w_or_p_iti.keys	reexpo.started	reexpo.stopped	w_or_p_iti.started	w_or_p_iti.stopped	scramble.started	scramble.stopped	word_or_pseudo.started	word_or_pseudo.stopped	w_or_p.keys	w_or_p.started	w_or_p.stopped	w_or_p_iti.rt	w_or_p.rt	participant	session	date	expName	psychopyVersion	frameRate	
0	0	0	0	0	0	0	0	None	None	None	7.675527573999716	9.676688594990992										testing123	001	2020_May_12_1637	LDT	3.2.4	59.905804593379926	
0	0	0	0	1	0	1	0	None	None	None	10.126830989000155	12.127163233002648										testing123	001	2020_May_12_1637	LDT	3.2.4	59.905804593379926	
0	0	0	0	2	0	2	0	None	None	None	12.627272508994793	14.627219495989266										testing123	001	2020_May_12_1637	LDT	3.2.4	59.905804593379926	
0	0	0	0	3	0	3	0	None	None	None	15.127250122997793	17.127395917996182										testing123	001	2020_May_12_1637	LDT	3.2.4	59.905804593379926	
0	0	0	0	4	0	4	0	None	None	None	17.627589080002508	19.627645822998602										testing123	001	2020_May_12_1637	LDT	3.2.4	59.905804593379926	
0	0	0	0										22.111069539998425	None	20.144366723994608	None	None	20.144366723994608	None			testing123	001	2020_May_12_1637	LDT	3.2.4	59.905804593379926	
1	0	1	0	0	0	0	0	None	None	None	22.14445242699003	24.14435605199833										testing123	001	2020_May_12_1637	LDT	3.2.4	59.905804593379926	
1	0	1	0	1	0	1	0	None	None	None	24.62805312499404	26.627996715993504										testing123	001	2020_May_12_1637	LDT	3.2.4	59.905804593379926	
1	0	1	0	2	0	2	0	None	None	None	27.12799458099471	29.128212062001694										testing123	001	2020_May_12_1637	LDT	3.2.4	59.905804593379926	
1	0	1	0	3	0	3	0	None	None	None	29.628305060003186	31.62851068699092										testing123	001	2020_May_12_1637	LDT	3.2.4	59.905804593379926	
1	0	1	0	4	0	4	0	None	None	None	32.12824205699144	34.12861418399552										testing123	001	2020_May_12_1637	LDT	3.2.4	59.905804593379926	
1	0	1	0	5	0	5	0	None	None	None	34.62868854099361	36.62881940900115										testing123	001	2020_May_12_1637	LDT	3.2.4	59.905804593379926	
1	0	1	0	6	0	6	0	None	None	None	37.12890086800326	39.12874710999313										testing123	001	2020_May_12_1637	LDT	3.2.4	59.905804593379926	
1	0	1	0										41.61192740200204	None	39.62884752599348	None	None	39.62884752599348	None			testing123	001	2020_May_12_1637	LDT	3.2.4	59.905804593379926	
2	0	2	0	0	0	0	0	None	None	None	41.64599319599802	43.64614729699679										testing123	001	2020_May_12_1637	LDT	3.2.4	59.905804593379926	
2	0	2	0	1	0	1	0	None	None	None	44.129372341994895	46.129482617994654										testing123	001	2020_May_12_1637	LDT	3.2.4	59.905804593379926	
2	0	2	0	2	0	2	0	None	None	None	46.629384706990095	48.62961222798913										testing123	001	2020_May_12_1637	LDT	3.2.4	59.905804593379926	
2	0	2	0	3	0	3	0	None	None	None	49.12974347399722	51.129893188990536										testing123	001	2020_May_12_1637	LDT	3.2.4	59.905804593379926	
2	0	2	0	4	0	4	0	None	None	None	51.62995932500053	53.62983461699332										testing123	001	2020_May_12_1637	LDT	3.2.4	59.905804593379926	
2	0	2	0	5	0	5	0	None	None	None	54.12984798899561	56.130002161997254										testing123	001	2020_May_12_1637	LDT	3.2.4	59.905804593379926	
2	0	2	0										58.613524638989475	None	56.62998801399954	None	None	56.62998801399954	None			testing123	001	2020_May_12_1637	LDT	3.2.4	59.905804593379926	
3	0	3	0	0	0	0	0	None	None	None	58.646885130001465	60.647003669000696										testing123	001	2020_May_12_1637	LDT	3.2.4	59.905804593379926	
3	0	3	0	1	0	1	0	None	None	None	61.13035611099622	63.13054493999516										testing123	001	2020_May_12_1637	LDT	3.2.4	59.905804593379926	
3	0	3	0	2	0	2	0	None	None	None	63.63053750900144	65.63065126800211										testing123	001	2020_May_12_1637	LDT	3.2.4	59.905804593379926	
3	0	3	0	3	0	3	0	None	None	None	66.13054824199935	68.13082450500224										testing123	001	2020_May_12_1637	LDT	3.2.4	59.905804593379926	
3	0	3	0	4	0	4	0	None	None	None	68.63113041799807	70.64739427399763										testing123	001	2020_May_12_1637	LDT	3.2.4	59.905804593379926	
3	0	3	0	5	0	5	0	None	None	None	71.13122812499932	73.13071394799044										testing123	001	2020_May_12_1637	LDT	3.2.4	59.905804593379926	
3	0	3	0										75.5979792970029	None	73.61484394800209	None	None	73.61484394800209	None			testing123	001	2020_May_12_1637	LDT	3.2.4	59.905804593379926	
4	0	4	0	0	0	0	0	None	None	None	75.6313560330018	77.63112288799312										testing123	001	2020_May_12_1637	LDT	3.2.4	59.905804593379926	
4	0	4	0	1	0	1	0	None	None	None	78.11478531699686	80.11480679298984										testing123	001	2020_May_12_1637	LDT	3.2.4	59.905804593379926	
4	0	4	0	2	0	2	0	None	None	None	80.61515552199853	82.61521899899526										testing123	001	2020_May_12_1637	LDT	3.2.4	59.905804593379926	
4	0	4	0	3	0	3	0	None	None	None	83.11493144500128	85.11548528500134										testing123	001	2020_May_12_1637	LDT	3.2.4	59.905804593379926	
4	0	4	0	4	0	4	0	None	None	None	85.61537627199141	87.6155487819924										testing123	001	2020_May_12_1637	LDT	3.2.4	59.905804593379926	
4	0	4	0	5	0	5	0	None	None	None	88.11556446699251	90.11540425999556										testing123	001	2020_May_12_1637	LDT	3.2.4	59.905804593379926	
4	0	4	0	6	0	6	0	None	None	None	90.61592354999448	92.61604425299447										testing123	001	2020_May_12_1637	LDT	3.2.4	59.905804593379926	
4	0	4	0	7	0	7	0	None	None	None	93.11596472500241	95.1160084019939										testing123	001	2020_May_12_1637	LDT	3.2.4	59.905804593379926	
4	0	4	0										97.59955298899149	None	95.61602923300234	None	None	95.61602923300234	None			testing123	001	2020_May_12_1637	LDT	3.2.4	59.905804593379926	
5	0	5	0	0	0	0	0	None	None	None	97.63252110299072	99.63286323599459										testing123	001	2020_May_12_1637	LDT	3.2.4	59.905804593379926	
5	0	5	0	1	0	1	0	None	None	None	100.11525068400078	102.11649498098996										testing123	001	2020_May_12_1637	LDT	3.2.4	59.905804593379926	
5	0	5	0	2	0	2	0	None	None	None	102.61658935000014	104.61615124899254										testing123	001	2020_May_12_1637	LDT	3.2.4	59.905804593379926	
5	0	5	0	3	0	3	0	None	None	None	105.11653577299148	107.11681336199399										testing123	001	2020_May_12_1637	LDT	3.2.4	59.905804593379926	
5	0	5	0	4	0	4	0	None	None	None	107.61666743599926	109.61697886200272										testing123	001	2020_May_12_1637	LDT	3.2.4	59.905804593379926	
5	0	5	0	5	0	5	0	None	None	None	110.11655843300105	112.11740680500225										testing123	001	2020_May_12_1637	LDT	3.2.4	59.905804593379926	
5	0	5	0	6	0	6	0	None	114.60086146199319	None	112.61716656299541	114.6173926749907										testing123	001	2020_May_12_1637	LDT	3.2.4	59.905804593379926	
5	0	5	0										117.10102245399321	None	115.11747801399906	None	None	115.11747801399906	None			testing123	001	2020_May_12_1637	LDT	3.2.4	59.905804593379926	
6	0	6	0	0	0	0	0	None	None	None	117.13429498499318	119.13476003600226										testing123	001	2020_May_12_1637	LDT	3.2.4	59.905804593379926	
6	0	6	0	1	0	1	0	None	None	None	119.61792323600093	121.61802864300262										testing123	001	2020_May_12_1637	LDT	3.2.4	59.905804593379926	
6	0	6	0	2	0	2	0	None	None	None	122.11818642499566	124.11801800099784										testing123	001	2020_May_12_1637	LDT	3.2.4	59.905804593379926	
6	0	6	0	3	0	3	0	None	None	None	124.61815809299878	126.61812480699155										testing123	001	2020_May_12_1637	LDT	3.2.4	59.905804593379926	
6	0	6	0	4	0	4	0	None	None	None	127.11779695100267	129.11834623198956										testing123	001	2020_May_12_1637	LDT	3.2.4	59.905804593379926	
6	0	6	0	5	0	5	0	None	None	None	129.6183120450005	131.61839426099323										testing123	001	2020_May_12_1637	LDT	3.2.4	59.905804593379926	
6	0	6	0	6	0	6	0	None	None	None	132.11862703399675	134.11862795999332										testing123	001	2020_May_12_1637	LDT	3.2.4	59.905804593379926	
6	0	6	0										136.6023964920023	None	134.61902261999785	None	None	134.61902261999785	None			testing123	001	2020_May_12_1637	LDT	3.2.4	59.905804593379926	
7	0	7	0	0	0	0	0	None	None	None	136.6355655840016	138.63551950699184										testing123	001	2020_May_12_1637	LDT	3.2.4	59.905804593379926	
7	0	7	0	1	0	1	0	None	None	None	139.1192748839967	141.1181474789919										testing123	001	2020_May_12_1637	LDT	3.2.4	59.905804593379926	
7	0	7	0	2	0	2	0	None	None	None	141.61890722200042	143.61888262900175										testing123	001	2020_May_12_1637	LDT	3.2.4	59.905804593379926	
7	0	7	0	3	0	3	0	None	None	None	144.11955149700225	146.1197600579908										testing123	001	2020_May_12_1637	LDT	3.2.4	59.905804593379926	
7	0	7	0	4	0	4	0	None	None	None	146.619063110993	148.61910195599194										testing123	001	2020_May_12_1637	LDT	3.2.4	59.905804593379926	
7	0	7	0										151.1032954199909	None	149.11962823099748	None	None	149.11962823099748	None			testing123	001	2020_May_12_1637	LDT	3.2.4	59.905804593379926	
8	0	8	0	0	0	0	0	None	None	None	151.13699381699553	153.1368392669974										testing123	001	2020_May_12_1637	LDT	3.2.4	59.905804593379926	
8	0	8	0	1	0	1	0	None	None	None	153.6195264919952	155.62003027299943										testing123	001	2020_May_12_1637	LDT	3.2.4	59.905804593379926	
8	0	8	0	2	0	2	0	None	None	None	156.1199124239938	158.12046729499707										testing123	001	2020_May_12_1637	LDT	3.2.4	59.905804593379926	
8	0	8	0	3	0	3	0	None	None	None	158.62050938699394	160.62089712500165										testing123	001	2020_May_12_1637	LDT	3.2.4	59.905804593379926	
8	0	8	0	4	0	4	0	None	None	None	161.12051592099306	163.12072021899803										testing123	001	2020_May_12_1637	LDT	3.2.4	59.905804593379926	
8	0	8	0	5	0	5	0	None	None	None	163.6208386149956	165.62115182400157										testing123	001	2020_May_12_1637	LDT	3.2.4	59.905804593379926	
8	0	8	0	6	0	6	0	None	None	None	166.1210401569988	168.12113747699186										testing123	001	2020_May_12_1637	LDT	3.2.4	59.905804593379926	
8	0	8	0	7	0	7	0	None	None	None	168.62117631199362	170.62131386499095										testing123	001	2020_May_12_1637	LDT	3.2.4	59.905804593379926	
8	0	8	0										173.10499815799994	None	171.12115719899884	None	None	171.12115719899884	None			testing123	001	2020_May_12_1637	LDT	3.2.4	59.905804593379926	
9	0	9	0	0	0	0	0	None	None	None	173.13814046100015	175.13840361699113										testing123	001	2020_May_12_1637	LDT	3.2.4	59.905804593379926	
9	0	9	0	1	0	1	0	None	None	None	175.6216704279941	177.62183174899837										testing123	001	2020_May_12_1637	LDT	3.2.4	59.905804593379926	
9	0	9	0	2	0	2	0	None	None	None	178.1218289459939	180.12203183099336										testing123	001	2020_May_12_1637	LDT	3.2.4	59.905804593379926	
9	0	9	0	3	0	3	0	None	None	None	180.62195030199655	182.62209134000295										testing123	001	2020_May_12_1637	LDT	3.2.4	59.905804593379926	
9	0	9	0	4	0	4	0	None	None	None	183.12237985999673	185.12247208799818										testing123	001	2020_May_12_1637	LDT	3.2.4	59.905804593379926	
9	0	9	0	5	0	5	0	None	None	None	185.62252447799256	187.62261465999472										testing123	001	2020_May_12_1637	LDT	3.2.4	59.905804593379926	
9	0	9	0	6	0	6	0	None	None	None	188.1225098099967	190.12221470499935										testing123	001	2020_May_12_1637	LDT	3.2.4	59.905804593379926	
9	0	9	0	7	0	7	0	None	None	None	190.62260176100244	192.62290368600225										testing123	001	2020_May_12_1637	LDT	3.2.4	59.905804593379926	
9	0	9	0										195.10612520699215	None	193.12285215700103	None	None	193.12285215700103	None			testing123	001	2020_May_12_1637	LDT	3.2.4	59.905804593379926	
10	0	10	0	0	0	0	0	None	None	None	195.13959561700176	197.14001747099974										testing123	001	2020_May_12_1637	LDT	3.2.4	59.905804593379926	
10	0	10	0	1	0	1	0	None	None	None	197.6230629030033	199.62327128299512										testing123	001	2020_May_12_1637	LDT	3.2.4	59.905804593379926	
10	0	10	0	2	0	2	0	None	None	None	200.12324909899326	202.1236832919967										testing123	001	2020_May_12_1637	LDT	3.2.4	59.905804593379926	
10	0	10	0	3	0	3	0	None	None	None	202.62325730199518	204.62356255800114										testing123	001	2020_May_12_1637	LDT	3.2.4	59.905804593379926	
10	0	10	0	4	0	4	0	None	207.10719216200232	None	205.12361021799734	207.12382139200054										testing123	001	2020_May_12_1637	LDT	3.2.4	59.905804593379926	
10	0	10	0										209.6071130999917	None	207.62383513498935	None	None	207.62383513498935	None			testing123	001	2020_May_12_1637	LDT	3.2.4	59.905804593379926	
11	0	11	0	0	0	0	0	None	None	None	209.6241964810033	211.62416225699417										testing123	001	2020_May_12_1637	LDT	3.2.4	59.905804593379926	
11	0	11	0	1	0	1	0	None	None	None	212.12422750299447	214.12430304200097										testing123	001	2020_May_12_1637	LDT	3.2.4	59.905804593379926	
11	0	11	0	2	0	2	0	None	None	None	214.6244160819915	216.62443529399752										testing123	001	2020_May_12_1637	LDT	3.2.4	59.905804593379926	
11	0	11	0	3	0	3	0	None	None	None	217.1246097139956	219.12476881399925										testing123	001	2020_May_12_1637	LDT	3.2.4	59.905804593379926	
11	0	11	0	4	0	4	0	None	None	None	219.62466254500032	221.6242112280015										testing123	001	2020_May_12_1637	LDT	3.2.4	59.905804593379926	
11	0	11	0										224.10805529399659	None	222.12425798799086	None	None	222.12425798799086	None			testing123	001	2020_May_12_1637	LDT	3.2.4	59.905804593379926	
12	0	12	0	0	0	0	0	None	None	None	224.14174166899465	226.1416415929998										testing123	001	2020_May_12_1637	LDT	3.2.4	59.905804593379926	
12	0	12	0	1	0	1	0	None	None	None	226.62519863099442	228.62520808700356										testing123	001	2020_May_12_1637	LDT	3.2.4	59.905804593379926	
12	0	12	0	2	0	2	0	None	None	None	229.12532269798976	231.12553707999177										testing123	001	2020_May_12_1637	LDT	3.2.4	59.905804593379926	
12	0	12	0	3	0	3	0	None	None	None	231.6254921159998	233.6256188469997										testing123	001	2020_May_12_1637	LDT	3.2.4	59.905804593379926	
12	0	12	0	4	0	4	0	None	None	None	234.12573513499228	236.12598749199242										testing123	001	2020_May_12_1637	LDT	3.2.4	59.905804593379926	
12	0	12	0										238.60912831500173	None	236.62573076199624	None	None	236.62573076199624	None			testing123	001	2020_May_12_1637	LDT	3.2.4	59.905804593379926	
13	0	13	0	0	0	0	0	None	None	None	238.64273039800173	240.6427628859965										testing123	001	2020_May_12_1637	LDT	3.2.4	59.905804593379926	
13	0	13	0	1	0	1	0	None	None	None	241.12599608299206	243.12653481499										testing123	001	2020_May_12_1637	LDT	3.2.4	59.905804593379926	
13	0	13	0	2	0	2	0	None	None	None	243.62650952900003	245.62661686599313										testing123	001	2020_May_12_1637	LDT	3.2.4	59.905804593379926	
13	0	13	0	3	0	3	0	None	None	None	246.12654727399058	248.1268168809911										testing123	001	2020_May_12_1637	LDT	3.2.4	59.905804593379926	
13	0	13	0	4	0	4	0	None	None	None	248.62654929199198	250.62681468299706										testing123	001	2020_May_12_1637	LDT	3.2.4	59.905804593379926	
13	0	13	0	5	0	5	0	p	None	None	251.1266898009926	253.12716151100176								0.6790532239974709		testing123	001	2020_May_12_1637	LDT	3.2.4	59.905804593379926	
13	0	13	0	6	0	6	0	w	None	None	253.62720450900088	255.6273918349907								0.5039453600038541		testing123	001	2020_May_12_1637	LDT	3.2.4	59.905804593379926	
13	0	13	0	7	0	7	0	w	258.1108076219971	None	256.1271882979927	258.127541777998								0.558807698005694		testing123	001	2020_May_12_1637	LDT	3.2.4	59.905804593379926	
13	0	13	0										260.6107936670014	None	258.62747192400275	None	None	258.62747192400275	None			testing123	001	2020_May_12_1637	LDT	3.2.4	59.905804593379926	
14	0	14	0	0	0	0	0	w	None	None	260.64425791898975	262.64416129699384								1.067137381003704		testing123	001	2020_May_12_1637	LDT	3.2.4	59.905804593379926	
14	0	14	0	1	0	1	0	w	None	None	263.127846065996	265.1276806800015								0.8732074159925105		testing123	001	2020_May_12_1637	LDT	3.2.4	59.905804593379926	
14	0	14	0	2	0	2	0	w	None	None	265.6277808189916	267.6279677470011								0.7281272629916202		testing123	001	2020_May_12_1637	LDT	3.2.4	59.905804593379926	
14	0	14	0	3	0	3	0	p	None	None	268.12820971499605	270.12816394199035								0.5825980340014212		testing123	001	2020_May_12_1637	LDT	3.2.4	59.905804593379926	
14	0	14	0	4	0	4	0	p	None	None	270.62803002299916	272.62822586299444								0.536580939005944		testing123	001	2020_May_12_1637	LDT	3.2.4	59.905804593379926	
14	0	14	0	5	0	5	0	p	None	None	273.1285227769986	275.1284078259923								0.49292573700950015		testing123	001	2020_May_12_1637	LDT	3.2.4	59.905804593379926	
14	0	14	0										277.61224152600334	None	275.6286242859933	None	None	275.6286242859933	None			testing123	001	2020_May_12_1637	LDT	3.2.4	59.905804593379926	
15	0	15	0	0	0	0	0	w	None	None	277.64561861599213	279.64557200999116								0.7627376160089625		testing123	001	2020_May_12_1637	LDT	3.2.4	59.905804593379926	
15	0	15	0	1	0	1	0	p	None	None	280.1288891029981	282.12908457100275								0.528334010989056		testing123	001	2020_May_12_1637	LDT	3.2.4	59.905804593379926	
15	0	15	0	2	0	2	0	p	None	None	282.6287904579949	284.6290333549987								0.5341101899975911		testing123	001	2020_May_12_1637	LDT	3.2.4	59.905804593379926	
15	0	15	0	3	0	3	0	w	None	None	285.1291394650034	287.1294684500026								0.550864470002125		testing123	001	2020_May_12_1637	LDT	3.2.4	59.905804593379926	
15	0	15	0	4	0	4	0	p	None	None	287.6293294979987	289.62961278999865								0.46448172599775717		testing123	001	2020_May_12_1637	LDT	3.2.4	59.905804593379926	
15	0	15	0	5	0	5	0	w	292.1132413419982	None	290.12958628499473	292.12957680100226								0.5920129849982914		testing123	001	2020_May_12_1637	LDT	3.2.4	59.905804593379926	
15	0	15	0										294.6132283429906	None	292.62970729300287	None	None	292.62970729300287	None			testing123	001	2020_May_12_1637	LDT	3.2.4	59.905804593379926	
16	0	16	0	0	0	0	0	w	None	None	294.6462773469975	296.6466836749896								0.5412378299952252		testing123	001	2020_May_12_1637	LDT	3.2.4	59.905804593379926	
16	0	16	0	1	0	1	0	p	None	None	297.13016513199545	299.1298903669958								0.584953345998656		testing123	001	2020_May_12_1637	LDT	3.2.4	59.905804593379926	
16	0	16	0	2	0	2	0	w	None	None	299.6303979730001	301.6301684909995								0.5844356059969869		testing123	001	2020_May_12_1637	LDT	3.2.4	59.905804593379926	
16	0	16	0	3	0	3	0	p	None	None	302.1302295200003	304.130603683996								0.5445970610016957		testing123	001	2020_May_12_1637	LDT	3.2.4	59.905804593379926	
16	0	16	0	4	0	4	0	p	None	None	304.6306945190008	306.63088472800155								0.45082438600366004		testing123	001	2020_May_12_1637	LDT	3.2.4	59.905804593379926	
16	0	16	0	5	0	5	0	w	None	None	307.1309008709941	309.130868688997								0.421626863986603		testing123	001	2020_May_12_1637	LDT	3.2.4	59.905804593379926	
16	0	16	0										311.6144944359985	None	309.6306563429971	None	None	309.6306563429971	None			testing123	001	2020_May_12_1637	LDT	3.2.4	59.905804593379926	
17	0	17	0	0	0	0	0	w	None	None	311.64788106099877	313.64803807598946								0.8127840450033545		testing123	001	2020_May_12_1637	LDT	3.2.4	59.905804593379926	
17	0	17	0	1	0	1	0	w	None	None	314.1146622840024	316.11474891800026								0.6777050420059822		testing123	001	2020_May_12_1637	LDT	3.2.4	59.905804593379926	
17	0	17	0	2	0	2	0	p	None	None	316.61419697599194	318.61489851700026								0.3270688300108304		testing123	001	2020_May_12_1637	LDT	3.2.4	59.905804593379926	
17	0	17	0	3	0	3	0	p	None	None	319.11497918899113	321.11412219099293								0.36193817800085526		testing123	001	2020_May_12_1637	LDT	3.2.4	59.905804593379926	
17	0	17	0	4	0	4	0	w	None	None	321.614987131994	323.61507071099186								0.4028860040125437		testing123	001	2020_May_12_1637	LDT	3.2.4	59.905804593379926	
17	0	17	0	5	0	5	0	p	None	None	324.11523566299	326.11539403899224								0.11457490100292489		testing123	001	2020_May_12_1637	LDT	3.2.4	59.905804593379926	
17	0	17	0	6	0	6	0	w	None	None	326.61585314599506	328.6155198609922								1.4787180589919444		testing123	001	2020_May_12_1637	LDT	3.2.4	59.905804593379926	
17	0	17	0	7	0	7	0	p	None	None	329.11555649898946	331.1157639489975								1.0021630880073644		testing123	001	2020_May_12_1637	LDT	3.2.4	59.905804593379926	
17	0	17	0										333.59938252299617	None	331.6158554680005	None	p	331.6158554680005	None		1.4636930010019569	testing123	001	2020_May_12_1637	LDT	3.2.4	59.905804593379926	
18	0	18	0	0	0	0	0	p	None	None	333.6325860109937	335.6326029240008								0.9707921149965841		testing123	001	2020_May_12_1637	LDT	3.2.4	59.905804593379926	
18	0	18	0	1	0	1	0	None	None	None	336.1162589779997	338.11623421999684										testing123	001	2020_May_12_1637	LDT	3.2.4	59.905804593379926	
18	0	18	0	2	0	2	0	None	None	None	338.61628809099784	340.6162842549966										testing123	001	2020_May_12_1637	LDT	3.2.4	59.905804593379926	
18	0	18	0	3	0	3	0	None	None	None	341.11644307599636	343.116458272998										testing123	001	2020_May_12_1637	LDT	3.2.4	59.905804593379926	
18	0	18	0	4	0	4	0	None	None	None	343.6165592119942	345.61678233499697										testing123	001	2020_May_12_1637	LDT	3.2.4	59.905804593379926	
18	0	18	0	5	0	5	0	None	None	None	346.11687893999624	348.11698048400285										testing123	001	2020_May_12_1637	LDT	3.2.4	59.905804593379926	
18	0	18	0										350.6004389820009	None	348.6168822829932	None	None	348.6168822829932	None			testing123	001	2020_May_12_1637	LDT	3.2.4	59.905804593379926	
19	0	19	0	0	0	0	0	None	None	None	350.6339030620002	352.6339153339941										testing123	001	2020_May_12_1637	LDT	3.2.4	59.905804593379926	
19	0	19	0	1	0	1	0	None	None	None	353.11716911599797	355.117563384003										testing123	001	2020_May_12_1637	LDT	3.2.4	59.905804593379926	
19	0	19	0	2	0	2	0	None	None	None	355.6176159729948	357.6177850989916										testing123	001	2020_May_12_1637	LDT	3.2.4	59.905804593379926	
19	0	19	0	3	0	3	0	None	None	None	358.11749526399944	360.1178007080016										testing123	001	2020_May_12_1637	LDT	3.2.4	59.905804593379926	
19	0	19	0	4	0	4	0	None	None	None	360.6178095149953	362.61789945099736										testing123	001	2020_May_12_1637	LDT	3.2.4	59.905804593379926	
19	0	19	0										365.10154515199247	None	363.1180948379915	None	None	363.1180948379915	None			testing123	001	2020_May_12_1637	LDT	3.2.4	59.905804593379926	
20	0	20	0	0	0	0	0	None	None	None	365.1343609960022	367.1347370329895										testing123	001	2020_May_12_1637	LDT	3.2.4	59.905804593379926	
20	0	20	0	1	0	1	0	None	None	None	367.6180939379992	369.63337888800015										testing123	001	2020_May_12_1637	LDT	3.2.4	59.905804593379926	
20	0	20	0	2	0	2	0	None	None	None	370.11671525599377	372.1172485269926										testing123	001	2020_May_12_1637	LDT	3.2.4	59.905804593379926	
20	0	20	0	3	0	3	0	None	None	None	372.61730300600175	374.6170333639893										testing123	001	2020_May_12_1637	LDT	3.2.4	59.905804593379926	
20	0	20	0	4	0	4	0	None	None	None	375.11753934199805	377.118936326995										testing123	001	2020_May_12_1637	LDT	3.2.4	59.905804593379926	
20	0	20	0	5	0	5	0	None	None	None	377.61856334799086	379.6191426360019										testing123	001	2020_May_12_1637	LDT	3.2.4	59.905804593379926	
20	0	20	0	6	0	6	0	None	None	None	380.11851254499925	382.11924260300293										testing123	001	2020_May_12_1637	LDT	3.2.4	59.905804593379926	
20	0	20	0										384.6026667260012	None	382.6192157960031	None	None	382.6192157960031	None			testing123	001	2020_May_12_1637	LDT	3.2.4	59.905804593379926	
21	0	21	0	0	0	0	0	None	None	None	384.6361636060028	386.6357451389922										testing123	001	2020_May_12_1637	LDT	3.2.4	59.905804593379926	
21	0	21	0	1	0	1	0	None	None	None	387.1194806309941	389.11983336199773										testing123	001	2020_May_12_1637	LDT	3.2.4	59.905804593379926	
21	0	21	0	2	0	2	0	None	None	None	389.6197694220027	391.6197388689907										testing123	001	2020_May_12_1637	LDT	3.2.4	59.905804593379926	
21	0	21	0	3	0	3	0	None	None	None	392.1197726429964	394.1198252769973										testing123	001	2020_May_12_1637	LDT	3.2.4	59.905804593379926	
21	0	21	0	4	0	4	0	None	None	None	394.6199365779903	396.6201711379981										testing123	001	2020_May_12_1637	LDT	3.2.4	59.905804593379926	
21	0	21	0	5	0	5	0	None	None	None	397.12028437700064	399.12036949099274										testing123	001	2020_May_12_1637	LDT	3.2.4	59.905804593379926	
21	0	21	0	6	0	6	0	None	401.60392896099074	None	399.62035352799285	401.6206492679921										testing123	001	2020_May_12_1637	LDT	3.2.4	59.905804593379926	
21	0	21	0										404.1041747059935	None	402.1208189739991	None	None	402.1208189739991	None			testing123	001	2020_May_12_1637	LDT	3.2.4	59.905804593379926	
22	0	22	0	0	0	0	0	None	None	None	404.1375237559987	406.1370077629981										testing123	001	2020_May_12_1637	LDT	3.2.4	59.905804593379926	
22	0	22	0	1	0	1	0	None	None	None	406.6205511279986	408.6211985569971										testing123	001	2020_May_12_1637	LDT	3.2.4	59.905804593379926	
22	0	22	0	2	0	2	0	None	None	None	409.12107762199594	411.1212380759971										testing123	001	2020_May_12_1637	LDT	3.2.4	59.905804593379926	
22	0	22	0	3	0	3	0	None	None	None	411.6211506289983	413.6213858429983										testing123	001	2020_May_12_1637	LDT	3.2.4	59.905804593379926	
22	0	22	0	4	0	4	0	None	None	None	414.1214779430011	416.12070650199894										testing123	001	2020_May_12_1637	LDT	3.2.4	59.905804593379926	
22	0	22	0	5	0	5	0	None	None	None	416.62145829699875	418.62188626799616										testing123	001	2020_May_12_1637	LDT	3.2.4	59.905804593379926	
22	0	22	0	6	0	6	0	None	None	None	419.1214772129897	421.1219962030009										testing123	001	2020_May_12_1637	LDT	3.2.4	59.905804593379926	
22	0	22	0	7	0	7	0	None	None	None	421.62211179999576	423.6215982059948										testing123	001	2020_May_12_1637	LDT	3.2.4	59.905804593379926	
22	0	22	0										426.1055699290009	None	424.122147905	None	None	424.122147905	None			testing123	001	2020_May_12_1637	LDT	3.2.4	59.905804593379926	
23	0	23	0	0	0	0	0	None	None	None	426.138892322997	428.1391026049969										testing123	001	2020_May_12_1637	LDT	3.2.4	59.905804593379926	
23	0	23	0	1	0	1	0	None	None	None	428.62266204199113	430.62238028200227										testing123	001	2020_May_12_1637	LDT	3.2.4	59.905804593379926	
23	0	23	0	2	0	2	0	None	None	None	431.1227246119961	433.12278586099274										testing123	001	2020_May_12_1637	LDT	3.2.4	59.905804593379926	
23	0	23	0	3	0	3	0	None	None	None	433.6228270189895	435.6226066649979										testing123	001	2020_May_12_1637	LDT	3.2.4	59.905804593379926	
23	0	23	0	4	0	4	0	None	None	None	436.1230179379927	438.1231689739943										testing123	001	2020_May_12_1637	LDT	3.2.4	59.905804593379926	
23	0	23	0	5	0	5	0	None	None	None	438.6228848359897	440.6231426669983										testing123	001	2020_May_12_1637	LDT	3.2.4	59.905804593379926	
23	0	23	0	6	0	6	0	None	None	None	441.12307565099036	443.12356079000165										testing123	001	2020_May_12_1637	LDT	3.2.4	59.905804593379926	
23	0	23	0										445.60700999399705	None	443.6234350070008	None	None	443.6234350070008	None			testing123	001	2020_May_12_1637	LDT	3.2.4	59.905804593379926	
24	0	24	0	0	0	0	0	None	None	None	445.6404022319912	447.64054837099684										testing123	001	2020_May_12_1637	LDT	3.2.4	59.905804593379926	
24	0	24	0	1	0	1	0	None	None	None	448.12368457698904	450.12363890898996										testing123	001	2020_May_12_1637	LDT	3.2.4	59.905804593379926	
24	0	24	0	2	0	2	0	None	None	None	450.6239881579968	452.6239856309985										testing123	001	2020_May_12_1637	LDT	3.2.4	59.905804593379926	
24	0	24	0	3	0	3	0	None	None	None	453.12410967599135	455.1243048519973										testing123	001	2020_May_12_1637	LDT	3.2.4	59.905804593379926	
24	0	24	0	4	0	4	0	None	None	None	455.6242173789942	457.6245940039953										testing123	001	2020_May_12_1637	LDT	3.2.4	59.905804593379926	
24	0	24	0	5	0	5	0	None	None	None	458.1246049689944	460.12455766698986										testing123	001	2020_May_12_1637	LDT	3.2.4	59.905804593379926	
24	0	24	0	6	0	6	0	None	None	None	460.6247979369946	462.6250408109918										testing123	001	2020_May_12_1637	LDT	3.2.4	59.905804593379926	
24	0	24	0	7	0	7	0	None	None	None	463.124829487002	465.12447789										testing123	001	2020_May_12_1637	LDT	3.2.4	59.905804593379926	
24	0	24	0										467.6085517719912	None	465.62522389799415	None	None	465.62522389799415	None			testing123	001	2020_May_12_1637	LDT	3.2.4	59.905804593379926	
25	0	25	0	0	0	0	0	None	None	None	467.6420541849948	469.64191319099336										testing123	001	2020_May_12_1637	LDT	3.2.4	59.905804593379926	
25	0	25	0	1	0	1	0	None	None	None	470.12538351799594	472.12546169399866										testing123	001	2020_May_12_1637	LDT	3.2.4	59.905804593379926	
25	0	25	0	2	0	2	0	None	None	None	472.6256680209917	474.6257193779893										testing123	001	2020_May_12_1637	LDT	3.2.4	59.905804593379926	
25	0	25	0	3	0	3	0	None	None	None	475.12548119299754	477.1259380279953										testing123	001	2020_May_12_1637	LDT	3.2.4	59.905804593379926	
25	0	25	0	4	0	4	0	None	None	None	477.62580363699817	479.62548798100033										testing123	001	2020_May_12_1637	LDT	3.2.4	59.905804593379926	
25	0	25	0	5	0	5	0	None	482.10946608199447	None	480.12567234999733	482.12610341199616										testing123	001	2020_May_12_1637	LDT	3.2.4	59.905804593379926	
25	0	25	0										484.6096087719925	None	482.62615183099115	None	None	482.62615183099115	None			testing123	001	2020_May_12_1637	LDT	3.2.4	59.905804593379926	
26	0	26	0	0	0	0	0	None	None	None	484.6430691900023	486.64314770400233										testing123	001	2020_May_12_1637	LDT	3.2.4	59.905804593379926	
26	0	26	0	1	0	1	0	None	None	None	487.1264339140034	489.1265150639956										testing123	001	2020_May_12_1637	LDT	3.2.4	59.905804593379926	
26	0	26	0	2	0	2	0	None	None	None	489.626608156992	491.62683076399844										testing123	001	2020_May_12_1637	LDT	3.2.4	59.905804593379926	
26	0	26	0	3	0	3	0	None	None	None	492.12694299699797	494.1271311640012										testing123	001	2020_May_12_1637	LDT	3.2.4	59.905804593379926	
26	0	26	0	4	0	4	0	None	None	None	494.6269673170027	496.6271906460024										testing123	001	2020_May_12_1637	LDT	3.2.4	59.905804593379926	
26	0	26	0	5	0	5	0	None	None	None	497.12711374000355	499.12744328498957										testing123	001	2020_May_12_1637	LDT	3.2.4	59.905804593379926	
26	0	26	0										501.6109288209991	None	499.62756672900287	None	None	499.62756672900287	None			testing123	001	2020_May_12_1637	LDT	3.2.4	59.905804593379926	
27	0	27	0	0	0	0	0	None	None	None	501.6440033639956	503.6442211379908										testing123	001	2020_May_12_1637	LDT	3.2.4	59.905804593379926	
27	0	27	0	1	0	1	0	None	None	None	504.1277274329914	506.1272951379942										testing123	001	2020_May_12_1637	LDT	3.2.4	59.905804593379926	
27	0	27	0	2	0	2	0	None	None	None	506.6268399679975	508.6278060009936										testing123	001	2020_May_12_1637	LDT	3.2.4	59.905804593379926	
27	0	27	0	3	0	3	0	None	None	None	509.12819702499837	511.1281604139949										testing123	001	2020_May_12_1637	LDT	3.2.4	59.905804593379926	
27	0	27	0	4	0	4	0	None	None	None	511.62822667800356	513.628275021998										testing123	001	2020_May_12_1637	LDT	3.2.4	59.905804593379926	
27	0	27	0	5	0	5	0	None	None	None	514.1281273289933	516.1278644440026										testing123	001	2020_May_12_1637	LDT	3.2.4	59.905804593379926	
27	0	27	0	6	0	6	0	None	None	None	516.6286917659891	518.6286942829902										testing123	001	2020_May_12_1637	LDT	3.2.4	59.905804593379926	
27	0	27	0	7	0	7	0	None	521.1122591329913	None	519.1287207729911	521.1286636069999										testing123	001	2020_May_12_1637	LDT	3.2.4	59.905804593379926	
27	0	27	0										523.612395388991	None	521.6289936269895	None	None	521.6289936269895	None			testing123	001	2020_May_12_1637	LDT	3.2.4	59.905804593379926	
28	0	28	0	0	0	0	0	None	None	None	523.6457130229974	525.6457356789906										testing123	001	2020_May_12_1637	LDT	3.2.4	59.905804593379926	
28	0	28	0	1	0	1	0	None	None	None	526.1292556109984	528.129307575										testing123	001	2020_May_12_1637	LDT	3.2.4	59.905804593379926	
28	0	28	0	2	0	2	0	None	None	None	528.6294592159975	530.629599545995										testing123	001	2020_May_12_1637	LDT	3.2.4	59.905804593379926	
28	0	28	0	3	0	3	0	None	None	None	531.1295217430015	533.1296670799929										testing123	001	2020_May_12_1637	LDT	3.2.4	59.905804593379926	
28	0	28	0	4	0	4	0	None	None	None	533.6297037189943	535.629883267										testing123	001	2020_May_12_1637	LDT	3.2.4	59.905804593379926	
28	0	28	0	5	0	5	0	None	None	None	536.1298248609965	538.1299520280008										testing123	001	2020_May_12_1637	LDT	3.2.4	59.905804593379926	
28	0	28	0	6	0	6	0	None	None	None	538.630028849002	540.6301472759951										testing123	001	2020_May_12_1637	LDT	3.2.4	59.905804593379926	
28	0	28	0										543.1135690539959	None	541.1301921889972	None	None	541.1301921889972	None			testing123	001	2020_May_12_1637	LDT	3.2.4	59.905804593379926	
29	0	29	0	0	0	0	0	None	None	None	543.1472784279904	545.1472694129916										testing123	001	2020_May_12_1637	LDT	3.2.4	59.905804593379926	
29	0	29	0	1	0	1	0	None	None	None	545.63067176599	547.6305938959995										testing123	001	2020_May_12_1637	LDT	3.2.4	59.905804593379926	
29	0	29	0	2	0	2	0	None	None	None	548.1308152779966	550.1308845029998										testing123	001	2020_May_12_1637	LDT	3.2.4	59.905804593379926	
29	0	29	0	3	0	3	0	None	None	None	550.6308848030021	552.631147039996										testing123	001	2020_May_12_1637	LDT	3.2.4	59.905804593379926	
29	0	29	0	4	0	4	0	None	None	None	553.114341056993	555.1145363940013										testing123	001	2020_May_12_1637	LDT	3.2.4	59.905804593379926	
29	0	29	0	5	0	5	0	None	None	None	555.6311517659924	557.63120281999										testing123	001	2020_May_12_1637	LDT	3.2.4	59.905804593379926	
29	0	29	0	6	0	6	0	None	None	None	558.1147590559995	560.1147948549915										testing123	001	2020_May_12_1637	LDT	3.2.4	59.905804593379926	
29	0	29	0										562.5984545259998	None	560.6148446320003	None	None	560.6148446320003	None			testing123	001	2020_May_12_1637	LDT	3.2.4	59.905804593379926	
30	0	30	0	0	0	0	0	None	None	None	562.6317718349892	564.6317850170017										testing123	001	2020_May_12_1637	LDT	3.2.4	59.905804593379926	
30	0	30	0	1	0	1	0	None	None	None	565.1152726449945	567.1154178119905										testing123	001	2020_May_12_1637	LDT	3.2.4	59.905804593379926	
30	0	30	0	2	0	2	0	None	None	None	567.6307712209964	569.6321150290023										testing123	001	2020_May_12_1637	LDT	3.2.4	59.905804593379926	
30	0	30	0	3	0	3	0	None	None	None	570.115665239995	572.1155772889906										testing123	001	2020_May_12_1637	LDT	3.2.4	59.905804593379926	
30	0	30	0	4	0	4	0	None	None	None	572.6157804510003	574.615901377998										testing123	001	2020_May_12_1637	LDT	3.2.4	59.905804593379926	
30	0	30	0										577.0994475179905	None	575.1157891719922	None	None	575.1157891719922	None			testing123	001	2020_May_12_1637	LDT	3.2.4	59.905804593379926	
31	0	31	0	0	0	0	0	None	None	None	577.1328617190011	579.1329373129993										testing123	001	2020_May_12_1637	LDT	3.2.4	59.905804593379926	
31	0	31	0	1	0	1	0	None	None	None	579.6161994860013	581.616262030002										testing123	001	2020_May_12_1637	LDT	3.2.4	59.905804593379926	
31	0	31	0	2	0	2	0	None	None	None	582.1163380609942	584.1164948429941										testing123	001	2020_May_12_1637	LDT	3.2.4	59.905804593379926	
31	0	31	0	3	0	3	0	None	None	None	584.6166731870035	586.6166781399952										testing123	001	2020_May_12_1637	LDT	3.2.4	59.905804593379926	
31	0	31	0	4	0	4	0	None	589.1003917670023	None	587.1167445570027	589.1169550719933										testing123	001	2020_May_12_1637	LDT	3.2.4	59.905804593379926	
31	0	31	0										591.6003678799898	None	589.6170252269949	None	None	589.6170252269949	None			testing123	001	2020_May_12_1637	LDT	3.2.4	59.905804593379926	
32	0	32	0	0	0	0	0	None	None	None	591.6339650269947	593.6339349859918										testing123	001	2020_May_12_1637	LDT	3.2.4	59.905804593379926	
32	0	32	0	1	0	1	0	None	None	None	594.1166405029944	596.1174797139975										testing123	001	2020_May_12_1637	LDT	3.2.4	59.905804593379926	
32	0	32	0	2	0	2	0	None	None	None	596.6174065700034	598.6177335379907										testing123	001	2020_May_12_1637	LDT	3.2.4	59.905804593379926	
32	0	32	0	3	0	3	0	None	None	None	599.1175662789901	601.117579393991										testing123	001	2020_May_12_1637	LDT	3.2.4	59.905804593379926	
32	0	32	0	4	0	4	0	None	None	None	601.6177550610009	603.6177213939955										testing123	001	2020_May_12_1637	LDT	3.2.4	59.905804593379926	
32	0	32	0	5	0	5	0	None	606.1012359219894	None	604.1181131869962	606.1181698459986										testing123	001	2020_May_12_1637	LDT	3.2.4	59.905804593379926	
32	0	32	0										608.6015836989973	None	606.6181685269985	None	None	606.6181685269985	None			testing123	001	2020_May_12_1637	LDT	3.2.4	59.905804593379926	
33	0	33	0	0	0	0	0	None	None	None	608.6349799589952	610.634989379003										testing123	001	2020_May_12_1637	LDT	3.2.4	59.905804593379926	
33	0	33	0	1	0	1	0	None	None	None	611.1185845650034	613.1183029759995										testing123	001	2020_May_12_1637	LDT	3.2.4	59.905804593379926	
33	0	33	0	2	0	2	0	None	None	None	613.6187579249963	615.6186200279917										testing123	001	2020_May_12_1637	LDT	3.2.4	59.905804593379926	
33	0	33	0	3	0	3	0	None	None	None	616.1186851189996	618.1188287569967										testing123	001	2020_May_12_1637	LDT	3.2.4	59.905804593379926	
33	0	33	0	4	0	4	0	None	None	None	618.6188569119986	620.6191087719926										testing123	001	2020_May_12_1637	LDT	3.2.4	59.905804593379926	
33	0	33	0										623.1026019760029	None	621.1189431239909	None	None	621.1189431239909	None			testing123	001	2020_May_12_1637	LDT	3.2.4	59.905804593379926	
34	0	34	0	0	0	0	0	None	None	None	623.13598258399	625.1359394059982										testing123	001	2020_May_12_1637	LDT	3.2.4	59.905804593379926	
34	0	34	0	1	0	1	0	None	None	None	625.6192664419941	627.6193237739935										testing123	001	2020_May_12_1637	LDT	3.2.4	59.905804593379926	
34	0	34	0	2	0	2	0	None	None	None	628.1195066069922	630.1199183139979										testing123	001	2020_May_12_1637	LDT	3.2.4	59.905804593379926	
34	0	34	0	3	0	3	0	None	None	None	630.6199399210018	632.6199385959917										testing123	001	2020_May_12_1637	LDT	3.2.4	59.905804593379926	
34	0	34	0	4	0	4	0	None	None	None	633.1199899529893	635.1199054649915										testing123	001	2020_May_12_1637	LDT	3.2.4	59.905804593379926	
34	0	34	0	5	0	5	0	None	None	None	635.6200344629906	637.6201293969934										testing123	001	2020_May_12_1637	LDT	3.2.4	59.905804593379926	
34	0	34	0	6	0	6	0	None	None	None	638.1202107119898	640.1203627969953										testing123	001	2020_May_12_1637	LDT	3.2.4	59.905804593379926	
34	0	34	0										642.6033173499891	None	640.6204377789982	None	None	640.6204377789982	None			testing123	001	2020_May_12_1637	LDT	3.2.4	59.905804593379926	
35	0	35	0	0	0	0	0	None	None	None	642.6373371109948	644.637423868										testing123	001	2020_May_12_1637	LDT	3.2.4	59.905804593379926	
35	0	35	0	1	0	1	0	None	None	None	645.1203925000009	647.1208313179959										testing123	001	2020_May_12_1637	LDT	3.2.4	59.905804593379926	
35	0	35	0	2	0	2	0	None	None	None	647.6208939109929	649.6208994259941										testing123	001	2020_May_12_1637	LDT	3.2.4	59.905804593379926	
35	0	35	0	3	0	3	0	None	None	None	650.1210854079982	652.1212017829966										testing123	001	2020_May_12_1637	LDT	3.2.4	59.905804593379926	
35	0	35	0	4	0	4	0	None	None	None	652.6212248709926	654.6209955819941										testing123	001	2020_May_12_1637	LDT	3.2.4	59.905804593379926	
35	0	35	0	5	0	5	0	None	None	None	655.1213165109948	657.121701170996										testing123	001	2020_May_12_1637	LDT	3.2.4	59.905804593379926	
35	0	35	0										659.6048743260035	None	657.621756292996	None	None	657.621756292996	None			testing123	001	2020_May_12_1637	LDT	3.2.4	59.905804593379926	
36	0	36	0	0	0	0	0	None	None	None	659.6384812199976	661.6385688119917										testing123	001	2020_May_12_1637	LDT	3.2.4	59.905804593379926	
36	0	36	0	1	0	1	0	None	None	None	662.1221170249919	664.1221959230024										testing123	001	2020_May_12_1637	LDT	3.2.4	59.905804593379926	
36	0	36	0	2	0	2	0	None	None	None	664.6215409279976	666.6222931789962										testing123	001	2020_May_12_1637	LDT	3.2.4	59.905804593379926	
36	0	36	0	3	0	3	0	None	None	None	667.1220951220021	669.1223926929961										testing123	001	2020_May_12_1637	LDT	3.2.4	59.905804593379926	
36	0	36	0	4	0	4	0	None	None	None	669.6224377019971	671.6220040999906										testing123	001	2020_May_12_1637	LDT	3.2.4	59.905804593379926	
36	0	36	0	5	0	5	0	None	None	None	672.1225981649914	674.1226706199959										testing123	001	2020_May_12_1637	LDT	3.2.4	59.905804593379926	
36	0	36	0										676.6062690429972	None	674.6225765639974	None	None	674.6225765639974	None			testing123	001	2020_May_12_1637	LDT	3.2.4	59.905804593379926	
37	0	37	0	0	0	0	0	None	None	None	676.63959070899	678.6395602809935										testing123	001	2020_May_12_1637	LDT	3.2.4	59.905804593379926	
37	0	37	0	1	0	1	0	None	None	None	679.1229976789909	681.1222226919926										testing123	001	2020_May_12_1637	LDT	3.2.4	59.905804593379926	
37	0	37	0	2	0	2	0	None	None	None	681.6232188930007	683.6235264459974										testing123	001	2020_May_12_1637	LDT	3.2.4	59.905804593379926	
37	0	37	0	3	0	3	0	None	None	None	684.1228871149942	686.1236618080002										testing123	001	2020_May_12_1637	LDT	3.2.4	59.905804593379926	
37	0	37	0	4	0	4	0	None	None	None	686.6235777559923	688.6239509890002										testing123	001	2020_May_12_1637	LDT	3.2.4	59.905804593379926	
37	0	37	0	5	0	5	0	None	None	None	689.1237049799965	691.123785756994										testing123	001	2020_May_12_1637	LDT	3.2.4	59.905804593379926	
37	0	37	0	6	0	6	0	None	None	None	691.6239725199994	693.6239692949894										testing123	001	2020_May_12_1637	LDT	3.2.4	59.905804593379926	
37	0	37	0										696.1074745200021	None	694.1240773469908	None	None	694.1240773469908	None			testing123	001	2020_May_12_1637	LDT	3.2.4	59.905804593379926	
38	0	38	0	0	0	0	0	None	None	None	696.1409831069905	698.1411706200015										testing123	001	2020_May_12_1637	LDT	3.2.4	59.905804593379926	
38	0	38	0	1	0	1	0	None	None	None	698.6245099299995	700.6245537139912										testing123	001	2020_May_12_1637	LDT	3.2.4	59.905804593379926	
38	0	38	0	2	0	2	0	None	None	None	701.1246766370023	703.1248549399897										testing123	001	2020_May_12_1637	LDT	3.2.4	59.905804593379926	
38	0	38	0	3	0	3	0	None	None	None	703.6247097879968	705.6249734320008										testing123	001	2020_May_12_1637	LDT	3.2.4	59.905804593379926	
38	0	38	0	4	0	4	0	None	None	None	706.1251163289999	708.1248989960004										testing123	001	2020_May_12_1637	LDT	3.2.4	59.905804593379926	
38	0	38	0										710.6084368839947	None	708.6251300159929	None	None	708.6251300159929	None			testing123	001	2020_May_12_1637	LDT	3.2.4	59.905804593379926	
39	0	39	0	0	0	0	0	None	None	None	710.6418514879915	712.6420494019985										testing123	001	2020_May_12_1637	LDT	3.2.4	59.905804593379926	
39	0	39	0	1	0	1	0	None	None	None	713.1255602000019	715.1250750449981										testing123	001	2020_May_12_1637	LDT	3.2.4	59.905804593379926	
39	0	39	0	2	0	2	0	None	None	None	715.6250359179976	717.6256195199967										testing123	001	2020_May_12_1637	LDT	3.2.4	59.905804593379926	
39	0	39	0	3	0	3	0	None	None	None	718.1258793180023	720.1258871009923										testing123	001	2020_May_12_1637	LDT	3.2.4	59.905804593379926	
39	0	39	0	4	0	4	0	None	None	None	720.6259970499959	722.6260283209995										testing123	001	2020_May_12_1637	LDT	3.2.4	59.905804593379926	
39	0	39	0										725.1098026370018	None	723.1261811470031	None	None	723.1261811470031	None			testing123	001	2020_May_12_1637	LDT	3.2.4	59.905804593379926	
40	0	40	0	0	0	0	0	None	None	None	725.1432607659954	727.1431114659936										testing123	001	2020_May_12_1637	LDT	3.2.4	59.905804593379926	
40	0	40	0	1	0	1	0	None	None	None	727.6265155250003	729.6266245339939										testing123	001	2020_May_12_1637	LDT	3.2.4	59.905804593379926	
40	0	40	0	2	0	2	0	None	None	None	730.1267957020027	732.1267147909966										testing123	001	2020_May_12_1637	LDT	3.2.4	59.905804593379926	
40	0	40	0	3	0	3	0	None	None	None	732.6268859760021	734.6267334439908										testing123	001	2020_May_12_1637	LDT	3.2.4	59.905804593379926	
40	0	40	0	4	0	4	0	None	None	None	735.1271032479999	737.127027444003										testing123	001	2020_May_12_1637	LDT	3.2.4	59.905804593379926	
40	0	40	0	5	0	5	0	None	None	None	737.6272031499975	739.6272290579946										testing123	001	2020_May_12_1637	LDT	3.2.4	59.905804593379926	
40	0	40	0	6	0	6	0	None	None	None	740.1272694569925	742.1275791160006										testing123	001	2020_May_12_1637	LDT	3.2.4	59.905804593379926	
40	0	40	0										744.6092838719924	None	742.6274282829982	None	None	742.6274282829982	None			testing123	001	2020_May_12_1637	LDT	3.2.4	59.905804593379926	
41	0	41	0	0	0	0	0	None	None	None	744.6261505949951	746.6275343719899										testing123	001	2020_May_12_1637	LDT	3.2.4	59.905804593379926	
41	0	41	0	1	0	1	0	None	None	None	747.1279522059922	749.1279084699927										testing123	001	2020_May_12_1637	LDT	3.2.4	59.905804593379926	
41	0	41	0	2	0	2	0	None	None	None	749.6265036190016	751.6282542919944										testing123	001	2020_May_12_1637	LDT	3.2.4	59.905804593379926	
41	0	41	0	3	0	3	0	None	None	None	752.1275458879973	754.1283490569913										testing123	001	2020_May_12_1637	LDT	3.2.4	59.905804593379926	
41	0	41	0	4	0	4	0	None	None	None	754.6283067710028	756.6283860650001										testing123	001	2020_May_12_1637	LDT	3.2.4	59.905804593379926	
41	0	41	0	5	0	5	0	None	None	None	757.1283400179964	759.1286747589911										testing123	001	2020_May_12_1637	LDT	3.2.4	59.905804593379926	
41	0	41	0	6	0	6	0	None	None	None	759.6286002790002	761.6289689889963										testing123	001	2020_May_12_1637	LDT	3.2.4	59.905804593379926	
41	0	41	0	7	0	7	0	None	764.1122364229959	None	762.1287422210007	764.1289790680021										testing123	001	2020_May_12_1637	LDT	3.2.4	59.905804593379926	
41	0	41	0										766.6124600939947	None	764.6290944599896	None	None	764.6290944599896	None			testing123	001	2020_May_12_1637	LDT	3.2.4	59.905804593379926	
42	0	42	0	0	0	0	0	None	None	None	766.6458182200004	768.6458878449921										testing123	001	2020_May_12_1637	LDT	3.2.4	59.905804593379926	
42	0	42	0	1	0	1	0	None	None	None	769.1292350500007	771.1291901829973										testing123	001	2020_May_12_1637	LDT	3.2.4	59.905804593379926	
42	0	42	0	2	0	2	0	None	None	None	771.6295004580024	773.6297551189928										testing123	001	2020_May_12_1637	LDT	3.2.4	59.905804593379926	
42	0	42	0	3	0	3	0	None	None	None	774.1295250409894	776.1298954369995										testing123	001	2020_May_12_1637	LDT	3.2.4	59.905804593379926	
42	0	42	0	4	0	4	0	None	None	None	776.6298805169936	778.6298447799927										testing123	001	2020_May_12_1637	LDT	3.2.4	59.905804593379926	
42	0	42	0	5	0	5	0	None	None	None	779.1298622219911	781.1301430399908										testing123	001	2020_May_12_1637	LDT	3.2.4	59.905804593379926	
42	0	42	0	6	0	6	0	None	None	None	781.6299478419969	783.6302192489966										testing123	001	2020_May_12_1637	LDT	3.2.4	59.905804593379926	
42	0	42	0	7	0	7	0	None	None	None	784.1299487689976	786.1304318809998										testing123	001	2020_May_12_1637	LDT	3.2.4	59.905804593379926	
42	0	42	0										788.6141243239981	None	786.630609971995	None	None	786.630609971995	None			testing123	001	2020_May_12_1637	LDT	3.2.4	59.905804593379926	
43	0	43	0	0	0	0	0	None	None	None	788.6471953220025	790.6475325749925										testing123	001	2020_May_12_1637	LDT	3.2.4	59.905804593379926	
43	0	43	0	1	0	1	0	None	None	None	791.1305834619998	793.1310179580032										testing123	001	2020_May_12_1637	LDT	3.2.4	59.905804593379926	
43	0	43	0	2	0	2	0	None	None	None	793.6143820909929	795.6144692009984										testing123	001	2020_May_12_1637	LDT	3.2.4	59.905804593379926	
43	0	43	0	3	0	3	0	None	None	None	796.1145375619963	798.1146401659935										testing123	001	2020_May_12_1637	LDT	3.2.4	59.905804593379926	
43	0	43	0	4	0	4	0	None	None	None	798.6148507799953	800.6144535439962										testing123	001	2020_May_12_1637	LDT	3.2.4	59.905804593379926	
43	0	43	0	5	0	5	0	None	None	None	801.1147500869993	803.114934939993										testing123	001	2020_May_12_1637	LDT	3.2.4	59.905804593379926	
43	0	43	0	6	0	6	0	None	None	None	803.6148290290002	805.6152397800033										testing123	001	2020_May_12_1637	LDT	3.2.4	59.905804593379926	
43	0	43	0	7	0	7	0	None	None	None	806.1317851719941	808.1487858990004										testing123	001	2020_May_12_1637	LDT	3.2.4	59.905804593379926	
43	0	43	0										810.5983672570001	None	808.6152443899919	None	None	808.6152443899919	None			testing123	001	2020_May_12_1637	LDT	3.2.4	59.905804593379926	
44	0	44	0	0	0	0	0	None	None	None	810.632238678998	812.6324983119994										testing123	001	2020_May_12_1637	LDT	3.2.4	59.905804593379926	
44	0	44	0	1	0	1	0	None	None	None	813.115829656992	815.1158249790024										testing123	001	2020_May_12_1637	LDT	3.2.4	59.905804593379926	
44	0	44	0	2	0	2	0	None	None	None	815.6157697919989	817.616181282996										testing123	001	2020_May_12_1637	LDT	3.2.4	59.905804593379926	
44	0	44	0	3	0	3	0	None	None	None	818.1160474359931	820.1160815289913										testing123	001	2020_May_12_1637	LDT	3.2.4	59.905804593379926	
44	0	44	0	4	0	4	0	None	None	None	820.6161428939959	822.6164938099973										testing123	001	2020_May_12_1637	LDT	3.2.4	59.905804593379926	
44	0	44	0	5	0	5	0	None	None	None	823.11629898299	825.1163454880007										testing123	001	2020_May_12_1637	LDT	3.2.4	59.905804593379926	
44	0	44	0	6	0	6	0	None	None	None	825.6163510429906	827.6167346619914										testing123	001	2020_May_12_1637	LDT	3.2.4	59.905804593379926	
44	0	44	0										830.0997277349961	None	828.1168645049911	None	None	828.1168645049911	None			testing123	001	2020_May_12_1637	LDT	3.2.4	59.905804593379926	
45	0	45	0	0	0	0	0	None	None	None	830.1331335919967	832.1338706179959										testing123	001	2020_May_12_1637	LDT	3.2.4	59.905804593379926	
45	0	45	0	1	0	1	0	None	None	None	832.617117820002	834.6168845509965										testing123	001	2020_May_12_1637	LDT	3.2.4	59.905804593379926	
45	0	45	0	2	0	2	0	None	None	None	835.1170327279979	837.1173696390033										testing123	001	2020_May_12_1637	LDT	3.2.4	59.905804593379926	
45	0	45	0	3	0	3	0	None	None	None	837.6173159059981	839.617361504992										testing123	001	2020_May_12_1637	LDT	3.2.4	59.905804593379926	
45	0	45	0	4	0	4	0	None	None	None	840.117392383996	842.117489545999										testing123	001	2020_May_12_1637	LDT	3.2.4	59.905804593379926	
45	0	45	0	5	0	5	0	p	None	None	842.6172006279958	844.6180542259972								1.096299174008891		testing123	001	2020_May_12_1637	LDT	3.2.4	59.905804593379926	
45	0	45	0	6	0	6	0	p	None	None	845.1179146779905	847.1180176429916								0.41271651299030054		testing123	001	2020_May_12_1637	LDT	3.2.4	59.905804593379926	
45	0	45	0										849.6014890899969	None	847.6178418139898	None	w	847.6178418139898	None		1.2862345080066007	testing123	001	2020_May_12_1637	LDT	3.2.4	59.905804593379926	
46	0	46	0	0	0	0	0	p	None	None	849.6349198949902	851.6349688819901								0.7096839880105108		testing123	001	2020_May_12_1637	LDT	3.2.4	59.905804593379926	
46	0	46	0	1	0	1	0	w	None	None	852.1184536950022	854.1184912989993								0.5938237590016797		testing123	001	2020_May_12_1637	LDT	3.2.4	59.905804593379926	
46	0	46	0	2	0	2	0	w	None	None	854.618067065996	856.618303944997								0.4582034009945346		testing123	001	2020_May_12_1637	LDT	3.2.4	59.905804593379926	
46	0	46	0	3	0	3	0	p	None	None	857.1184810999985	859.1185913219961								0.4657538469909923		testing123	001	2020_May_12_1637	LDT	3.2.4	59.905804593379926	
46	0	46	0	4	0	4	0	p	None	None	859.6189437790017	861.6189261230029								0.47892592300195247		testing123	001	2020_May_12_1637	LDT	3.2.4	59.905804593379926	
46	0	46	0	5	0	5	0	w	None	None	862.118888113997	864.1191140399897								0.6199458720075199		testing123	001	2020_May_12_1637	LDT	3.2.4	59.905804593379926	
46	0	46	0	6	0	6	0	p	None	None	864.6188943379966	866.6191477829998								0.38774172400007956		testing123	001	2020_May_12_1637	LDT	3.2.4	59.905804593379926	
46	0	46	0	7	0	7	0	w	None	None	867.1193110309978	869.1193167599995								0.45822942300583236		testing123	001	2020_May_12_1637	LDT	3.2.4	59.905804593379926	
46	0	46	0										871.60278749399	None	869.6195249259908	None	p	869.6195249259908	None		1.294526486992254	testing123	001	2020_May_12_1637	LDT	3.2.4	59.905804593379926	
47	0	47	0	0	0	0	0	None	None	None	871.6363705459953	873.6364551899896										testing123	001	2020_May_12_1637	LDT	3.2.4	59.905804593379926	
47	0	47	0	1	0	1	0	None	None	None	874.119874349999	876.1200385409902										testing123	001	2020_May_12_1637	LDT	3.2.4	59.905804593379926	
47	0	47	0	2	0	2	0	None	None	None	876.6199630019983	878.6202277229895										testing123	001	2020_May_12_1637	LDT	3.2.4	59.905804593379926	
47	0	47	0	3	0	3	0	None	None	None	879.1203700869955	881.1202410699916										testing123	001	2020_May_12_1637	LDT	3.2.4	59.905804593379926	
47	0	47	0	4	0	4	0	None	None	None	881.6204894089897	883.6207109440002										testing123	001	2020_May_12_1637	LDT	3.2.4	59.905804593379926	
47	0	47	0	5	0	5	0	None	None	None	884.1206466649892	886.1206367080013										testing123	001	2020_May_12_1637	LDT	3.2.4	59.905804593379926	
47	0	47	0	6	0	6	0	None	None	None	886.6204469329969	888.6192764129955										testing123	001	2020_May_12_1637	LDT	3.2.4	59.905804593379926	
47	0	47	0										891.1044368970033	None	889.1208963209938	None	None	889.1208963209938	None			testing123	001	2020_May_12_1637	LDT	3.2.4	59.905804593379926	
48	0	48	0	0	0	0	0	None	None	None	891.1377426949912	893.137709417002										testing123	001	2020_May_12_1637	LDT	3.2.4	59.905804593379926	
48	0	48	0	1	0	1	0	None	None	None	893.6212391959998	895.6213556279981										testing123	001	2020_May_12_1637	LDT	3.2.4	59.905804593379926	
48	0	48	0	2	0	2	0	None	None	None	896.1212684280035	898.1214133879985										testing123	001	2020_May_12_1637	LDT	3.2.4	59.905804593379926	
48	0	48	0	3	0	3	0	None	None	None	898.6216043539898	900.6214831230027										testing123	001	2020_May_12_1637	LDT	3.2.4	59.905804593379926	
48	0	48	0	4	0	4	0	None	None	None	901.1216862229921	903.1218024779955										testing123	001	2020_May_12_1637	LDT	3.2.4	59.905804593379926	
48	0	48	0										905.6051972159912	None	903.6218827229895	None	None	903.6218827229895	None			testing123	001	2020_May_12_1637	LDT	3.2.4	59.905804593379926	
49	0	49	0	0	0	0	0	None	None	None	905.638741496994	907.6390053649957										testing123	001	2020_May_12_1637	LDT	3.2.4	59.905804593379926	
49	0	49	0	1	0	1	0	None	None	None	908.1222938369901	910.1224952789926										testing123	001	2020_May_12_1637	LDT	3.2.4	59.905804593379926	
49	0	49	0	2	0	2	0	None	None	None	910.6223561679944	912.6227112449997										testing123	001	2020_May_12_1637	LDT	3.2.4	59.905804593379926	
49	0	49	0	3	0	3	0	None	None	None	913.1225243630033	915.1226448840025										testing123	001	2020_May_12_1637	LDT	3.2.4	59.905804593379926	
49	0	49	0	4	0	4	0	None	917.6063450139918	None	915.6224630200013	917.6228471689974										testing123	001	2020_May_12_1637	LDT	3.2.4	59.905804593379926	
49	0	49	0										920.1058361869946	None	918.1228046179895	None	None	918.1228046179895	None			testing123	001	2020_May_12_1637	LDT	3.2.4	59.905804593379926	
50	0	50	0	0	0	0	0	None	None	None	920.1397504839988	922.1398004359944										testing123	001	2020_May_12_1637	LDT	3.2.4	59.905804593379926	
50	0	50	0	1	0	1	0	None	None	None	922.6234064129967	924.623539031003										testing123	001	2020_May_12_1637	LDT	3.2.4	59.905804593379926	
50	0	50	0	2	0	2	0	None	None	None	925.1236001689977	927.1235303540016										testing123	001	2020_May_12_1637	LDT	3.2.4	59.905804593379926	
50	0	50	0	3	0	3	0	None	None	None	927.6234454649966	929.6237671869894										testing123	001	2020_May_12_1637	LDT	3.2.4	59.905804593379926	
50	0	50	0	4	0	4	0	None	None	None	930.1236283479957	932.1238251460018										testing123	001	2020_May_12_1637	LDT	3.2.4	59.905804593379926	
50	0	50	0	5	0	5	0	None	None	None	932.6238277899974	934.6239958509977										testing123	001	2020_May_12_1637	LDT	3.2.4	59.905804593379926	
50	0	50	0	6	0	6	0	None	None	None	935.1239206949977	937.1240387059952										testing123	001	2020_May_12_1637	LDT	3.2.4	59.905804593379926	
50	0	50	0	7	0	7	0	None	None	None	937.6244073580019	939.6242712940002										testing123	001	2020_May_12_1637	LDT	3.2.4	59.905804593379926	
50	0	50	0										942.1077767690003	None	940.1243085009919	None	None	940.1243085009919	None			testing123	001	2020_May_12_1637	LDT	3.2.4	59.905804593379926	
51	0	51	0	0	0	0	0	None	None	None	942.1414843620005	944.1414118149987										testing123	001	2020_May_12_1637	LDT	3.2.4	59.905804593379926	
51	0	51	0	1	0	1	0	None	None	None	944.6248531390011	946.6246840149979										testing123	001	2020_May_12_1637	LDT	3.2.4	59.905804593379926	
51	0	51	0	2	0	2	0	None	None	None	947.1249353890016	949.1249854869966										testing123	001	2020_May_12_1637	LDT	3.2.4	59.905804593379926	
51	0	51	0	3	0	3	0	None	None	None	949.6248331779934	951.6251085859985										testing123	001	2020_May_12_1637	LDT	3.2.4	59.905804593379926	
51	0	51	0	4	0	4	0	None	None	None	952.1252017929946	954.1253564549988										testing123	001	2020_May_12_1637	LDT	3.2.4	59.905804593379926	
51	0	51	0	5	0	5	0	None	None	None	954.6254096249904	956.6253418289998										testing123	001	2020_May_12_1637	LDT	3.2.4	59.905804593379926	
51	0	51	0	6	0	6	0	w	None	None	957.1253752600023	959.1257325339975								0.7073219250014517		testing123	001	2020_May_12_1637	LDT	3.2.4	59.905804593379926	
51	0	51	0	7	0	7	0	p	None	None	959.6255864650011	961.6258194749971								0.2950218979967758		testing123	001	2020_May_12_1637	LDT	3.2.4	59.905804593379926	
51	0	51	0										964.1094945479999	None	962.1252855359926	None	w	962.1252855359926	None		1.1450727629999164	testing123	001	2020_May_12_1637	LDT	3.2.4	59.905804593379926	
52	0	52	0	0	0	0	0	w	None	None	964.1423093929916	966.1430056050012								0.6199540559900925		testing123	001	2020_May_12_1637	LDT	3.2.4	59.905804593379926	
52	0	52	0	1	0	1	0	p	None	None	966.6261580449936	968.6265898619895								0.39398562599672005		testing123	001	2020_May_12_1637	LDT	3.2.4	59.905804593379926	
52	0	52	0	2	0	2	0	w	None	None	969.1264335649903	971.1416278999968								0.36933936999412253		testing123	001	2020_May_12_1637	LDT	3.2.4	59.905804593379926	
52	0	52	0	3	0	3	0	p	None	None	971.6250969589892	973.6251714760001								0.4045767560019158		testing123	001	2020_May_12_1637	LDT	3.2.4	59.905804593379926	
52	0	52	0	4	0	4	0	w	None	None	974.1251204339933	976.125422209996								0.3003731669887202		testing123	001	2020_May_12_1637	LDT	3.2.4	59.905804593379926	
52	0	52	0	5	0	5	0	w	None	None	976.62520859699	978.6272235209908								0.37913765899429563		testing123	001	2020_May_12_1637	LDT	3.2.4	59.905804593379926	
52	0	52	0										981.1106965609943	None	979.1267511719925	None	p	979.1267511719925	None		1.5755593240028247	testing123	001	2020_May_12_1637	LDT	3.2.4	59.905804593379926	
53	0	53	0	0	0	0	0	p	None	None	981.1434709189925	983.1441570929892								0.882834775999072		testing123	001	2020_May_12_1637	LDT	3.2.4	59.905804593379926	
53	0	53	0	1	0	1	0	w	None	None	983.6273188600026	985.6276302579936								0.31421245700039435		testing123	001	2020_May_12_1637	LDT	3.2.4	59.905804593379926	
53	0	53	0	2	0	2	0	p	None	None	986.1277527709899	988.1276823279914								1.0071642090042587		testing123	001	2020_May_12_1637	LDT	3.2.4	59.905804593379926	
53	0	53	0	3	0	3	0	w	None	None	988.6277117319987	990.6278036079893								1.3200442749948706		testing123	001	2020_May_12_1637	LDT	3.2.4	59.905804593379926	
53	0	53	0	4	0	4	0	p	None	None	991.1281393069949	993.1281119869964								0.3834358619933482		testing123	001	2020_May_12_1637	LDT	3.2.4	59.905804593379926	
53	0	53	0	5	0	5	0	None	None	None	993.6280401179974	995.6284584499954										testing123	001	2020_May_12_1637	LDT	3.2.4	59.905804593379926	
53	0	53	0	6	0	6	0	None	None	None	996.128287227999	998.1284245139977										testing123	001	2020_May_12_1637	LDT	3.2.4	59.905804593379926	
53	0	53	0	7	0	7	0	None	1000.6107749369985	None	998.6283768729918	1000.6281167419947										testing123	001	2020_May_12_1637	LDT	3.2.4	59.905804593379926	
53	0	53	0										1003.1119143459946	None	1001.1287320479896	None	None	1001.1287320479896	None			testing123	001	2020_May_12_1637	LDT	3.2.4	59.905804593379926	
54	0	54	0	0	0	0	0	None	None	None	1003.144827814991	1005.1451051399927										testing123	001	2020_May_12_1637	LDT	3.2.4	59.905804593379926	
54	0	54	0	1	0	1	0	None	None	None	1005.6289000839897	1007.6285302269971										testing123	001	2020_May_12_1637	LDT	3.2.4	59.905804593379926	
54	0	54	0	2	0	2	0	None	None	None	1008.1290940530016	1010.1279925679992										testing123	001	2020_May_12_1637	LDT	3.2.4	59.905804593379926	
54	0	54	0	3	0	3	0	None	None	None	1010.628179901003	1012.6293054929993										testing123	001	2020_May_12_1637	LDT	3.2.4	59.905804593379926	
54	0	54	0	4	0	4	0	None	None	None	1013.129427256994	1015.1294927209965										testing123	001	2020_May_12_1637	LDT	3.2.4	59.905804593379926	
54	0	54	0										1017.6129872239981	None	1015.6294758089934	None	None	1015.6294758089934	None			testing123	001	2020_May_12_1637	LDT	3.2.4	59.905804593379926	
55	0	55	0	0	0	0	0	None	None	None	1017.6463609829952	1019.6465107729891										testing123	001	2020_May_12_1637	LDT	3.2.4	59.905804593379926	
55	0	55	0	1	0	1	0	None	None	None	1020.1298571719963	1022.129971589995										testing123	001	2020_May_12_1637	LDT	3.2.4	59.905804593379926	
55	0	55	0	2	0	2	0	None	None	None	1022.6290545829979	1024.630478646999										testing123	001	2020_May_12_1637	LDT	3.2.4	59.905804593379926	
55	0	55	0	3	0	3	0	None	None	None	1025.130398540001	1027.1304978459957										testing123	001	2020_May_12_1637	LDT	3.2.4	59.905804593379926	
55	0	55	0	4	0	4	0	None	None	None	1027.630460963992	1029.6305256759952										testing123	001	2020_May_12_1637	LDT	3.2.4	59.905804593379926	
55	0	55	0	5	0	5	0	None	None	None	1030.130520213992	1032.1308041680022										testing123	001	2020_May_12_1637	LDT	3.2.4	59.905804593379926	
55	0	55	0										1034.5978094129969	None	1032.630642557997	None	None	1032.630642557997	None			testing123	001	2020_May_12_1637	LDT	3.2.4	59.905804593379926	
56	0	56	0	0	0	0	0	None	None	None	1034.631124239997	1036.63128392199										testing123	001	2020_May_12_1637	LDT	3.2.4	59.905804593379926	
56	0	56	0	1	0	1	0	None	None	None	1037.1310988600017	1039.1306336459966										testing123	001	2020_May_12_1637	LDT	3.2.4	59.905804593379926	
56	0	56	0	2	0	2	0	None	None	None	1039.6144723229954	1041.614521149997										testing123	001	2020_May_12_1637	LDT	3.2.4	59.905804593379926	
56	0	56	0	3	0	3	0	None	None	None	1042.1146708519955	1044.1147665679891										testing123	001	2020_May_12_1637	LDT	3.2.4	59.905804593379926	
56	0	56	0	4	0	4	0	None	None	None	1044.6148465610022	1046.61504423499										testing123	001	2020_May_12_1637	LDT	3.2.4	59.905804593379926	
56	0	56	0	5	0	5	0	None	1049.0986711079895	None	1047.1149127429962	1049.1151806199923										testing123	001	2020_May_12_1637	LDT	3.2.4	59.905804593379926	
56	0	56	0										1051.5987033790007	None	1049.615403392003	None	None	1049.615403392003	None			testing123	001	2020_May_12_1637	LDT	3.2.4	59.905804593379926	
57	0	57	0	0	0	0	0	None	None	None	1051.632339992997	1053.6322549949982										testing123	001	2020_May_12_1637	LDT	3.2.4	59.905804593379926	
57	0	57	0	1	0	1	0	None	None	None	1054.1154882449919	1056.1156467879919										testing123	001	2020_May_12_1637	LDT	3.2.4	59.905804593379926	
57	0	57	0	2	0	2	0	None	None	None	1056.615982702002	1058.616153543										testing123	001	2020_May_12_1637	LDT	3.2.4	59.905804593379926	
57	0	57	0	3	0	3	0	None	None	None	1059.1159693980007	1061.1161750129977										testing123	001	2020_May_12_1637	LDT	3.2.4	59.905804593379926	
57	0	57	0	4	0	4	0	None	None	None	1061.615928401996	1063.6162674219959										testing123	001	2020_May_12_1637	LDT	3.2.4	59.905804593379926	
57	0	57	0	5	0	5	0	None	None	None	1064.1164602450008	1066.1166190749937										testing123	001	2020_May_12_1637	LDT	3.2.4	59.905804593379926	
57	0	57	0										1068.600082021003	None	1066.6165431919944	None	None	1066.6165431919944	None			testing123	001	2020_May_12_1637	LDT	3.2.4	59.905804593379926	
58	0	58	0	0	0	0	0	None	None	None	1068.633250717001	1070.633311040001										testing123	001	2020_May_12_1637	LDT	3.2.4	59.905804593379926	
58	0	58	0	1	0	1	0	None	None	None	1071.1166191800003	1073.1170327569998										testing123	001	2020_May_12_1637	LDT	3.2.4	59.905804593379926	
58	0	58	0	2	0	2	0	None	None	None	1073.6169409499998	1075.6171951829892										testing123	001	2020_May_12_1637	LDT	3.2.4	59.905804593379926	
58	0	58	0	3	0	3	0	None	None	None	1076.117187693002	1078.117121724994										testing123	001	2020_May_12_1637	LDT	3.2.4	59.905804593379926	
58	0	58	0	4	0	4	0	None	None	None	1078.617428394995	1080.6174207809963										testing123	001	2020_May_12_1637	LDT	3.2.4	59.905804593379926	
58	0	58	0										1083.1009309959918	None	1081.1175246749917	None	None	1081.1175246749917	None			testing123	001	2020_May_12_1637	LDT	3.2.4	59.905804593379926	
59	0	59	0	0	0	0	0	None	None	None	1083.1342570019915	1085.1343379369937										testing123	001	2020_May_12_1637	LDT	3.2.4	59.905804593379926	
59	0	59	0	1	0	1	0	None	None	None	1085.6180034049903	1087.6178756149893										testing123	001	2020_May_12_1637	LDT	3.2.4	59.905804593379926	
59	0	59	0	2	0	2	0	None	None	None	1088.118153880001	1090.1182807579899										testing123	001	2020_May_12_1637	LDT	3.2.4	59.905804593379926	
59	0	59	0	3	0	3	0	p	None	None	1090.6180214189953	1092.6183892080007								1.7216521209920757		testing123	001	2020_May_12_1637	LDT	3.2.4	59.905804593379926	
59	0	59	0	4	0	4	0	w	None	None	1093.118148946989	1095.1183859329903								0.5916756469960092		testing123	001	2020_May_12_1637	LDT	3.2.4	59.905804593379926	
59	0	59	0	5	0	5	0	w	None	None	1095.6184522089898	1097.618698499995								0.35238000900426414		testing123	001	2020_May_12_1637	LDT	3.2.4	59.905804593379926	
59	0	59	0	6	0	6	0	p	1100.1024122999952	None	1098.1186159999925	1100.1188656089944								0.8088912280072691		testing123	001	2020_May_12_1637	LDT	3.2.4	59.905804593379926	
59	0	59	0										1102.6022913670022	None	1100.6186001099995	None	None	1100.6186001099995	None			testing123	001	2020_May_12_1637	LDT	3.2.4	59.905804593379926	
60	0	60	0	0	0	0	0	None	None	None	1102.6356821469963	1104.635670566										testing123	001	2020_May_12_1637	LDT	3.2.4	59.905804593379926	
60	0	60	0	1	0	1	0	None	None	None	1105.1191183319897	1107.119203712995										testing123	001	2020_May_12_1637	LDT	3.2.4	59.905804593379926	
60	0	60	0	2	0	2	0	None	None	None	1107.6191640809993	1109.6193874489982										testing123	001	2020_May_12_1637	LDT	3.2.4	59.905804593379926	
60	0	60	0	3	0	3	0	None	None	None	1110.119501837995	1112.119820462991										testing123	001	2020_May_12_1637	LDT	3.2.4	59.905804593379926	
60	0	60	0	4	0	4	0	None	None	None	1112.6195969149994	1114.619853768003										testing123	001	2020_May_12_1637	LDT	3.2.4	59.905804593379926	
60	0	60	0	5	0	5	0	None	None	None	1115.1198191209987	1117.1201110480033										testing123	001	2020_May_12_1637	LDT	3.2.4	59.905804593379926	
60	0	60	0										1119.603723408989	None	1117.6199183459976	None	None	1117.6199183459976	None			testing123	001	2020_May_12_1637	LDT	3.2.4	59.905804593379926	
61	0	61	0	0	0	0	0	None	None	None	1119.6367322459992	1121.636838120001										testing123	001	2020_May_12_1637	LDT	3.2.4	59.905804593379926	
61	0	61	0	1	0	1	0	None	None	None	1122.1200417880027	1124.1205858679896										testing123	001	2020_May_12_1637	LDT	3.2.4	59.905804593379926	
61	0	61	0	2	0	2	0	None	None	None	1124.6197789599973	1126.6205260349961										testing123	001	2020_May_12_1637	LDT	3.2.4	59.905804593379926	
61	0	61	0	3	0	3	0	None	None	None	1127.1207964679925	1129.1201627499977										testing123	001	2020_May_12_1637	LDT	3.2.4	59.905804593379926	
61	0	61	0	4	0	4	0	None	None	None	1129.6206483089918	1131.6208443689975										testing123	001	2020_May_12_1637	LDT	3.2.4	59.905804593379926	
61	0	61	0	5	0	5	0	None	None	None	1132.12081778	1134.1213343669951										testing123	001	2020_May_12_1637	LDT	3.2.4	59.905804593379926	
61	0	61	0	6	0	6	0	None	None	None	1134.6213403639995	1136.6214068580011										testing123	001	2020_May_12_1637	LDT	3.2.4	59.905804593379926	
61	0	61	0	7	0	7	0	None	None	None	1137.1212941749982	1139.1213576019945										testing123	001	2020_May_12_1637	LDT	3.2.4	59.905804593379926	
61	0	61	0										1141.6051743330027	None	1139.6217135210027	None	None	1139.6217135210027	None			testing123	001	2020_May_12_1637	LDT	3.2.4	59.905804593379926	
62	0	62	0	0	0	0	0	None	None	None	1141.638629337991	1143.6386238720006										testing123	001	2020_May_12_1637	LDT	3.2.4	59.905804593379926	
62	0	62	0	1	0	1	0	None	None	None	1144.121719638002	1146.1218448779982										testing123	001	2020_May_12_1637	LDT	3.2.4	59.905804593379926	
62	0	62	0	2	0	2	0	None	None	None	1146.6221559580008	1148.6219236250035										testing123	001	2020_May_12_1637	LDT	3.2.4	59.905804593379926	
62	0	62	0	3	0	3	0	None	None	None	1149.1219035050017	1151.1222612809943										testing123	001	2020_May_12_1637	LDT	3.2.4	59.905804593379926	
62	0	62	0	4	0	4	0	None	None	None	1151.621967924002	1153.6226911699923										testing123	001	2020_May_12_1637	LDT	3.2.4	59.905804593379926	
62	0	62	0	5	0	5	0	None	None	None	1154.1224369849951	1156.1225865469896										testing123	001	2020_May_12_1637	LDT	3.2.4	59.905804593379926	
62	0	62	0	6	0	6	0	None	1158.6062703589996	None	1156.622673010992	1158.6229270249896										testing123	001	2020_May_12_1637	LDT	3.2.4	59.905804593379926	
62	0	62	0										1161.10625188399	None	1159.1228066640033	None	None	1159.1228066640033	None			testing123	001	2020_May_12_1637	LDT	3.2.4	59.905804593379926	
63	0	63	0	0	0	0	0	None	None	None	1161.1398775449925	1163.1398876820022										testing123	001	2020_May_12_1637	LDT	3.2.4	59.905804593379926	
63	0	63	0	1	0	1	0	None	None	None	1163.6233667469933	1165.6232412679965										testing123	001	2020_May_12_1637	LDT	3.2.4	59.905804593379926	
63	0	63	0	2	0	2	0	None	None	None	1166.1229684110003	1168.1236622229917										testing123	001	2020_May_12_1637	LDT	3.2.4	59.905804593379926	
63	0	63	0	3	0	3	0	None	None	None	1168.6235680620011	1170.6235565109964										testing123	001	2020_May_12_1637	LDT	3.2.4	59.905804593379926	
63	0	63	0	4	0	4	0	None	1173.1071205560002	None	1171.1238219349907	1173.1237654029974										testing123	001	2020_May_12_1637	LDT	3.2.4	59.905804593379926	
63	0	63	0										1175.6073013019923	None	1173.6237853359926	None	None	1173.6237853359926	None			testing123	001	2020_May_12_1637	LDT	3.2.4	59.905804593379926	
64	0	64	0	0	0	0	0	None	None	None	1175.6404014049913	1177.6410366939963										testing123	001	2020_May_12_1637	LDT	3.2.4	59.905804593379926	
64	0	64	0	1	0	1	0	None	None	None	1178.1242709169892	1180.1243454719952										testing123	001	2020_May_12_1637	LDT	3.2.4	59.905804593379926	
64	0	64	0	2	0	2	0	None	None	None	1180.6242956939968	1182.624514665993										testing123	001	2020_May_12_1637	LDT	3.2.4	59.905804593379926	
64	0	64	0	3	0	3	0	None	None	None	1183.123997237999	1185.124541954996										testing123	001	2020_May_12_1637	LDT	3.2.4	59.905804593379926	
64	0	64	0	4	0	4	0	None	None	None	1185.6247931249964	1187.6246638619923										testing123	001	2020_May_12_1637	LDT	3.2.4	59.905804593379926	
64	0	64	0	5	0	5	0	None	None	None	1188.1248826130031	1190.1251173339988										testing123	001	2020_May_12_1637	LDT	3.2.4	59.905804593379926	
64	0	64	0	6	0	6	0	None	None	None	1190.6251558259974	1192.6251347259968										testing123	001	2020_May_12_1637	LDT	3.2.4	59.905804593379926	
64	0	64	0										1195.1088705329894	None	1193.124968766002	None	None	1193.124968766002	None			testing123	001	2020_May_12_1637	LDT	3.2.4	59.905804593379926	
65	0	65	0	0	0	0	0	None	None	None	1195.1421021549904	1197.1421110969968										testing123	001	2020_May_12_1637	LDT	3.2.4	59.905804593379926	
65	0	65	0	1	0	1	0	None	None	None	1197.6255074200017	1199.6257548819995										testing123	001	2020_May_12_1637	LDT	3.2.4	59.905804593379926	
65	0	65	0	2	0	2	0	None	None	None	1200.125613540993	1202.1257988959987										testing123	001	2020_May_12_1637	LDT	3.2.4	59.905804593379926	
65	0	65	0	3	0	3	0	None	None	None	1202.6257877399912	1204.6263318499987										testing123	001	2020_May_12_1637	LDT	3.2.4	59.905804593379926	
65	0	65	0	4	0	4	0	None	None	None	1205.1258486529987	1207.1259727529978										testing123	001	2020_May_12_1637	LDT	3.2.4	59.905804593379926	
65	0	65	0	5	0	5	0	None	None	None	1207.6261270139948	1209.6262328189914										testing123	001	2020_May_12_1637	LDT	3.2.4	59.905804593379926	
65	0	65	0	6	0	6	0	None	1212.109800648992	None	1210.1262993900018	1212.125957629003										testing123	001	2020_May_12_1637	LDT	3.2.4	59.905804593379926	
65	0	65	0										1214.6100695409987	None	1212.6264084540016	None	None	1212.6264084540016	None			testing123	001	2020_May_12_1637	LDT	3.2.4	59.905804593379926	
66	0	66	0	0	0	0	0	None	None	None	1214.643527601991	1216.6434078399907										testing123	001	2020_May_12_1637	LDT	3.2.4	59.905804593379926	
66	0	66	0	1	0	1	0	None	None	None	1217.127016568993	1219.1269453629939										testing123	001	2020_May_12_1637	LDT	3.2.4	59.905804593379926	
66	0	66	0	2	0	2	0	None	None	None	1219.6269069929986	1221.6271549230005										testing123	001	2020_May_12_1637	LDT	3.2.4	59.905804593379926	
66	0	66	0	3	0	3	0	None	None	None	1222.1272017110023	1224.127564852999										testing123	001	2020_May_12_1637	LDT	3.2.4	59.905804593379926	
66	0	66	0	4	0	4	0	None	None	None	1224.6272815929988	1226.6275183209946										testing123	001	2020_May_12_1637	LDT	3.2.4	59.905804593379926	
66	0	66	0	5	0	5	0	None	1229.1109943670017	None	1227.127472291002	1229.1277536999987										testing123	001	2020_May_12_1637	LDT	3.2.4	59.905804593379926	
66	0	66	0										1231.6111616190028	None	1229.627659167003	None	None	1229.627659167003	None			testing123	001	2020_May_12_1637	LDT	3.2.4	59.905804593379926	
67	0	67	0	0	0	0	0	None	None	None	1231.6446462250024	1233.6446323339915										testing123	001	2020_May_12_1637	LDT	3.2.4	59.905804593379926	
67	0	67	0	1	0	1	0	None	None	None	1234.1280905669992	1236.128391263992										testing123	001	2020_May_12_1637	LDT	3.2.4	59.905804593379926	
67	0	67	0	2	0	2	0	None	None	None	1236.6280882729916	1238.6284368519991										testing123	001	2020_May_12_1637	LDT	3.2.4	59.905804593379926	
67	0	67	0	3	0	3	0	None	None	None	1239.128302771991	1241.128439127002										testing123	001	2020_May_12_1637	LDT	3.2.4	59.905804593379926	
67	0	67	0	4	0	4	0	None	None	None	1241.628673639003	1243.628882399993										testing123	001	2020_May_12_1637	LDT	3.2.4	59.905804593379926	
67	0	67	0										1246.1121128219966	None	1244.12873630799	None	None	1244.12873630799	None			testing123	001	2020_May_12_1637	LDT	3.2.4	59.905804593379926	
68	0	68	0	0	0	0	0	None	None	None	1246.1455304949923	1248.1452251790033										testing123	001	2020_May_12_1637	LDT	3.2.4	59.905804593379926	
68	0	68	0	1	0	1	0	w	None	None	1248.6290037979925	1250.6289138400025								0.7420868970075389		testing123	001	2020_May_12_1637	LDT	3.2.4	59.905804593379926	
68	0	68	0	2	0	2	0	w	None	None	1251.1291952579923	1253.1292394880002								0.7988166190043557		testing123	001	2020_May_12_1637	LDT	3.2.4	59.905804593379926	
68	0	68	0	3	0	3	0	None	None	None	1253.6293451300007	1255.6294927830022										testing123	001	2020_May_12_1637	LDT	3.2.4	59.905804593379926	
68	0	68	0	4	0	4	0	p	None	None	1256.1294062459929	1258.1296555820009								1.5009376130037708		testing123	001	2020_May_12_1637	LDT	3.2.4	59.905804593379926	
68	0	68	0	5	0	5	0	None	None	None	1258.6296647080017	1260.6298419179948										testing123	001	2020_May_12_1637	LDT	3.2.4	59.905804593379926	
68	0	68	0	6	0	6	0	None	None	None	1261.129860660003	1263.1301354919997										testing123	001	2020_May_12_1637	LDT	3.2.4	59.905804593379926	
68	0	68	0										1265.6135911649908	None	1263.6300214789953	None	None	1263.6300214789953	None			testing123	001	2020_May_12_1637	LDT	3.2.4	59.905804593379926	
69	0	69	0	0	0	0	0	None	None	None	1265.6466853039892	1267.646962386003										testing123	001	2020_May_12_1637	LDT	3.2.4	59.905804593379926	
69	0	69	0	1	0	1	0	None	None	None	1268.130464093003	1270.130581163001										testing123	001	2020_May_12_1637	LDT	3.2.4	59.905804593379926	
69	0	69	0	2	0	2	0	None	None	None	1270.6305333709897	1272.6305618059996										testing123	001	2020_May_12_1637	LDT	3.2.4	59.905804593379926	
69	0	69	0	3	0	3	0	None	None	None	1273.1307530280028	1275.130940944										testing123	001	2020_May_12_1637	LDT	3.2.4	59.905804593379926	
69	0	69	0	4	0	4	0	None	None	None	1275.6308270009904	1277.6309104179963										testing123	001	2020_May_12_1637	LDT	3.2.4	59.905804593379926	
69	0	69	0										1280.098001249993	None	1278.1306802649924	None	None	1278.1306802649924	None			testing123	001	2020_May_12_1637	LDT	3.2.4	59.905804593379926	
70	0	70	0	0	0	0	0	None	None	None	1280.1313020059897	1282.1313293650019										testing123	001	2020_May_12_1637	LDT	3.2.4	59.905804593379926	
70	0	70	0	1	0	1	0	None	None	None	1282.6148139559955	1284.6148219929892										testing123	001	2020_May_12_1637	LDT	3.2.4	59.905804593379926	
70	0	70	0	2	0	2	0	None	None	None	1285.1147949959995	1287.1150869229896										testing123	001	2020_May_12_1637	LDT	3.2.4	59.905804593379926	
70	0	70	0	3	0	3	0	None	None	None	1287.6149526849913	1289.6152451660018										testing123	001	2020_May_12_1637	LDT	3.2.4	59.905804593379926	
70	0	70	0	4	0	4	0	None	None	None	1290.1152855269902	1292.114762584999										testing123	001	2020_May_12_1637	LDT	3.2.4	59.905804593379926	
70	0	70	0										1294.5989442900027	None	1292.6153226239985	None	None	1292.6153226239985	None			testing123	001	2020_May_12_1637	LDT	3.2.4	59.905804593379926	
71	0	71	0	0	0	0	0	None	None	None	1294.6321034479915	1296.6324952860014										testing123	001	2020_May_12_1637	LDT	3.2.4	59.905804593379926	
71	0	71	0	1	0	1	0	p	None	None	1297.1156961300003	1299.115911350993								1.0116942890017526		testing123	001	2020_May_12_1637	LDT	3.2.4	59.905804593379926	
71	0	71	0	2	0	2	0	w	None	None	1299.6158764689899	1301.6162378430017								0.8893242219928652		testing123	001	2020_May_12_1637	LDT	3.2.4	59.905804593379926	
71	0	71	0	3	0	3	0	p	None	None	1302.1158600089984	1304.1162822740007								0.4252314689947525		testing123	001	2020_May_12_1637	LDT	3.2.4	59.905804593379926	
71	0	71	0	4	0	4	0	w	1306.5996408869978	None	1304.6162307030027	1306.616267313002								1.1136280939972494		testing123	001	2020_May_12_1637	LDT	3.2.4	59.905804593379926	
71	0	71	0										1309.099946574992	None	1307.1164616530004	None	None	1307.1164616530004	None			testing123	001	2020_May_12_1637	LDT	3.2.4	59.905804593379926	
72	0	72	0	0	0	0	0	p	None	None	1309.1332634999999	1311.1333142660005								0.35040263799601234		testing123	001	2020_May_12_1637	LDT	3.2.4	59.905804593379926	
72	0	72	0	1	0	1	0	w	None	None	1311.6168221269909	1313.6162860350014								0.6458575579890748		testing123	001	2020_May_12_1637	LDT	3.2.4	59.905804593379926	
72	0	72	0	2	0	2	0	None	None	None	1314.1166793099983	1316.11703459399										testing123	001	2020_May_12_1637	LDT	3.2.4	59.905804593379926	
72	0	72	0	3	0	3	0	p	None	None	1316.617048813001	1318.617417151996								0.9676681760029169		testing123	001	2020_May_12_1637	LDT	3.2.4	59.905804593379926	
72	0	72	0	4	0	4	0	None	None	None	1319.117373037996	1321.1173631109996										testing123	001	2020_May_12_1637	LDT	3.2.4	59.905804593379926	
72	0	72	0	5	0	5	0	None	None	None	1321.6175157370017	1323.6176261749933										testing123	001	2020_May_12_1637	LDT	3.2.4	59.905804593379926	
72	0	72	0	6	0	6	0	None	None	None	1324.1174031419941	1326.11762551										testing123	001	2020_May_12_1637	LDT	3.2.4	59.905804593379926	
72	0	72	0										1328.6013455380016	None	1326.617590105001	None	w	1326.617590105001	None		1.840034328008187	testing123	001	2020_May_12_1637	LDT	3.2.4	59.905804593379926	
73	0	73	0	0	0	0	0	p	None	None	1328.6345413489908	1330.6348566259985								0.6030368969950359		testing123	001	2020_May_12_1637	LDT	3.2.4	59.905804593379926	
73	0	73	0	1	0	1	0	None	None	None	1331.1179685809911	1333.1185215029982										testing123	001	2020_May_12_1637	LDT	3.2.4	59.905804593379926	
73	0	73	0	2	0	2	0	None	None	None	1333.61837388399	1335.618263457989										testing123	001	2020_May_12_1637	LDT	3.2.4	59.905804593379926	
73	0	73	0	3	0	3	0	None	None	None	1336.1183588119893	1338.1185376520007										testing123	001	2020_May_12_1637	LDT	3.2.4	59.905804593379926	
73	0	73	0	4	0	4	0	None	None	None	1338.6184101679974	1340.618633694001										testing123	001	2020_May_12_1637	LDT	3.2.4	59.905804593379926	
73	0	73	0	5	0	5	0	None	1343.1017218179913	None	1341.118708516995	1343.1185424779978										testing123	001	2020_May_12_1637	LDT	3.2.4	59.905804593379926	
73	0	73	0										1345.6022312040004	None	1343.6178651169903	None	None	1343.6178651169903	None			testing123	001	2020_May_12_1637	LDT	3.2.4	59.905804593379926	
74	0	74	0	0	0	0	0	None	None	None	1345.6356943879946	1347.6358656509983										testing123	001	2020_May_12_1637	LDT	3.2.4	59.905804593379926	
74	0	74	0	1	0	1	0	None	None	None	1348.1192191699956	1350.1193775489955										testing123	001	2020_May_12_1637	LDT	3.2.4	59.905804593379926	
74	0	74	0	2	0	2	0	None	None	None	1350.6193493649916	1352.619525533999										testing123	001	2020_May_12_1637	LDT	3.2.4	59.905804593379926	
74	0	74	0	3	0	3	0	None	None	None	1353.1195808509947	1355.1195922449988										testing123	001	2020_May_12_1637	LDT	3.2.4	59.905804593379926	
74	0	74	0	4	0	4	0	None	None	None	1355.6197794969921	1357.6197836490028										testing123	001	2020_May_12_1637	LDT	3.2.4	59.905804593379926	
74	0	74	0	5	0	5	0	w	None	None	1358.1196306850034	1360.1200326309918								0.4518887490121415		testing123	001	2020_May_12_1637	LDT	3.2.4	59.905804593379926	
74	0	74	0	6	0	6	0	w	None	None	1360.6189991220017	1362.620429477989								0.34349785099038854		testing123	001	2020_May_12_1637	LDT	3.2.4	59.905804593379926	
74	0	74	0	7	0	7	0	p	1365.1037168049952	None	1363.1201388799964	1365.1203093450022								0.4731986010010587		testing123	001	2020_May_12_1637	LDT	3.2.4	59.905804593379926	
74	0	74	0										1367.604032866002	None	1365.6203734599985	None	None	1365.6203734599985	None			testing123	001	2020_May_12_1637	LDT	3.2.4	59.905804593379926	
75	0	75	0	0	0	0	0	w	None	None	1367.6373979850032	1369.637012177991								0.7554783149971627		testing123	001	2020_May_12_1637	LDT	3.2.4	59.905804593379926	
75	0	75	0	1	0	1	0	w	None	None	1370.120935400002	1372.1211055089952								0.379788270991412		testing123	001	2020_May_12_1637	LDT	3.2.4	59.905804593379926	
75	0	75	0	2	0	2	0	p	None	None	1372.6210262020031	1374.6210142319906								0.3755740060005337		testing123	001	2020_May_12_1637	LDT	3.2.4	59.905804593379926	
75	0	75	0	3	0	3	0	w	None	None	1375.121081720994	1377.1212079309917								0.2573695850005606		testing123	001	2020_May_12_1637	LDT	3.2.4	59.905804593379926	
75	0	75	0	4	0	4	0	w	None	None	1377.6213250930014	1379.6213985009963								0.2779709860042203		testing123	001	2020_May_12_1637	LDT	3.2.4	59.905804593379926	
75	0	75	0	5	0	5	0	p	None	None	1380.1212931069895	1382.121703369994								0.25068714799999725		testing123	001	2020_May_12_1637	LDT	3.2.4	59.905804593379926	
75	0	75	0	6	0	6	0	p	None	None	1382.6215526219894	1384.6216719819931								0.5315685700043105		testing123	001	2020_May_12_1637	LDT	3.2.4	59.905804593379926	
75	0	75	0	7	0	7	0	p	None	None	1385.1217518659978	1387.1218932399934								0.4700682390102884		testing123	001	2020_May_12_1637	LDT	3.2.4	59.905804593379926	
75	0	75	0										1389.6054717929946	None	1387.6218729579996	None	w	1387.6218729579996	None		1.5107301539974287	testing123	001	2020_May_12_1637	LDT	3.2.4	59.905804593379926	
76	0	76	0	0	0	0	0	p	None	None	1389.6389763229963	1391.6387778200005								0.4805377800075803		testing123	001	2020_May_12_1637	LDT	3.2.4	59.905804593379926	
76	0	76	0	1	0	1	0	p	None	None	1392.1220565669937	1394.122377186999								0.4073469549912261		testing123	001	2020_May_12_1637	LDT	3.2.4	59.905804593379926	
76	0	76	0	2	0	2	0	w	None	None	1394.6222753640031	1396.622571742002								0.33090899500530213		testing123	001	2020_May_12_1637	LDT	3.2.4	59.905804593379926	
76	0	76	0	3	0	3	0	w	None	None	1397.1227399920026	1399.1222765059938								0.7711997290025465		testing123	001	2020_May_12_1637	LDT	3.2.4	59.905804593379926	
76	0	76	0	4	0	4	0	p	None	None	1399.6227867889975	1401.6229916110024								1.4300247259961907		testing123	001	2020_May_12_1637	LDT	3.2.4	59.905804593379926	
76	0	76	0	5	0	5	0	None	None	None	1402.1231525740004	1404.1233151579945										testing123	001	2020_May_12_1637	LDT	3.2.4	59.905804593379926	
76	0	76	0	6	0	6	0	None	None	None	1404.6230158739927	1406.623213386003										testing123	001	2020_May_12_1637	LDT	3.2.4	59.905804593379926	
76	0	76	0	7	0	7	0	None	None	None	1407.1231412769994	1409.1235054159915										testing123	001	2020_May_12_1637	LDT	3.2.4	59.905804593379926	
76	0	76	0										1411.6053602920001	None	1409.6234119009896	None	w	1409.6234119009896	None		1.7710912250040565	testing123	001	2020_May_12_1637	LDT	3.2.4	59.905804593379926	
77	0	77	0	0	0	0	0	w	None	None	1411.6220464249927	1413.623905735003								0.7363627830054611		testing123	001	2020_May_12_1637	LDT	3.2.4	59.905804593379926	
77	0	77	0	1	0	1	0	p	None	None	1414.1237192459957	1416.1239348709933								0.25372024899115786		testing123	001	2020_May_12_1637	LDT	3.2.4	59.905804593379926	
77	0	77	0	2	0	2	0	p	None	None	1416.623833648002	1418.6238197539933								0.3342820529942401		testing123	001	2020_May_12_1637	LDT	3.2.4	59.905804593379926	
77	0	77	0	3	0	3	0	None	None	None	1419.1239957859943	1421.1241269119928										testing123	001	2020_May_12_1637	LDT	3.2.4	59.905804593379926	
77	0	77	0	4	0	4	0	None	1423.6077835129981	None	1421.623788744997	1423.6243483669969										testing123	001	2020_May_12_1637	LDT	3.2.4	59.905804593379926	
77	0	77	0										1426.107365053991	None	1424.1243919089902	None	None	1424.1243919089902	None			testing123	001	2020_May_12_1637	LDT	3.2.4	59.905804593379926	
78	0	78	0	0	0	0	0	None	None	None	1426.1412798819947	1428.141387768992										testing123	001	2020_May_12_1637	LDT	3.2.4	59.905804593379926	
78	0	78	0	1	0	1	0	None	None	None	1428.6248224259907	1430.6250311579934										testing123	001	2020_May_12_1637	LDT	3.2.4	59.905804593379926	
78	0	78	0	2	0	2	0	None	None	None	1431.1248768759979	1433.1250722010009										testing123	001	2020_May_12_1637	LDT	3.2.4	59.905804593379926	
78	0	78	0	3	0	3	0	None	None	None	1433.625162928991	1435.625243729999										testing123	001	2020_May_12_1637	LDT	3.2.4	59.905804593379926	
78	0	78	0	4	0	4	0	None	None	None	1436.1252251459955	1438.1254913439916										testing123	001	2020_May_12_1637	LDT	3.2.4	59.905804593379926	
78	0	78	0	5	0	5	0	None	None	None	1438.6254268129996	1440.6256453769893										testing123	001	2020_May_12_1637	LDT	3.2.4	59.905804593379926	
78	0	78	0										1443.1084356849897	None	1441.1255325679958	None	None	1441.1255325679958	None			testing123	001	2020_May_12_1637	LDT	3.2.4	59.905804593379926	
79	0	79	0	0	0	0	0	None	None	None	1443.126736088001	1445.142614301003										testing123	001	2020_May_12_1637	LDT	3.2.4	59.905804593379926	
79	0	79	0	1	0	1	0	None	None	None	1445.6258688279922	1447.6263345960033										testing123	001	2020_May_12_1637	LDT	3.2.4	59.905804593379926	
79	0	79	0	2	0	2	0	None	None	None	1448.1260817589937	1450.1261880679958										testing123	001	2020_May_12_1637	LDT	3.2.4	59.905804593379926	
79	0	79	0	3	0	3	0	None	None	None	1450.6263173589978	1452.6264233900001										testing123	001	2020_May_12_1637	LDT	3.2.4	59.905804593379926	
79	0	79	0	4	0	4	0	None	None	None	1453.1263790719968	1455.1266624029959										testing123	001	2020_May_12_1637	LDT	3.2.4	59.905804593379926	
79	0	79	0	5	0	5	0	None	None	None	1455.626475778001	1457.6267023539986										testing123	001	2020_May_12_1637	LDT	3.2.4	59.905804593379926	
79	0	79	0	6	0	6	0	None	None	None	1458.1269896869926	1460.1268289180007										testing123	001	2020_May_12_1637	LDT	3.2.4	59.905804593379926	
79	0	79	0										1462.6105467659945	None	1460.6271008769982	None	None	1460.6271008769982	None			testing123	001	2020_May_12_1637	LDT	3.2.4	59.905804593379926	
80	0	80	0	0	0	0	0	None	None	None	1462.6438576479995	1464.6439910109912										testing123	001	2020_May_12_1637	LDT	3.2.4	59.905804593379926	
80	0	80	0	1	0	1	0	p	None	None	1465.1273344590008	1467.1274072359956								1.569295344001148		testing123	001	2020_May_12_1637	LDT	3.2.4	59.905804593379926	
80	0	80	0	2	0	2	0	w	None	None	1467.6274687149998	1469.627567507996								0.5818024079926545		testing123	001	2020_May_12_1637	LDT	3.2.4	59.905804593379926	
80	0	80	0	3	0	3	0	w	None	None	1470.1275949539995	1472.1277445479936								0.5384350530075608		testing123	001	2020_May_12_1637	LDT	3.2.4	59.905804593379926	
80	0	80	0	4	0	4	0	w	None	None	1472.6279261739983	1474.6276145339943								0.6057801410061074		testing123	001	2020_May_12_1637	LDT	3.2.4	59.905804593379926	
80	0	80	0	5	0	5	0	w	None	None	1475.1279958499945	1477.1280927579937								1.317526712999097		testing123	001	2020_May_12_1637	LDT	3.2.4	59.905804593379926	
80	0	80	0	6	0	6	0	p	None	None	1477.6281427149952	1479.628250166992								0.38428490099613555		testing123	001	2020_May_12_1637	LDT	3.2.4	59.905804593379926	
80	0	80	0	7	0	7	0	None	None	None	1480.1283259659976	1482.1283958929998										testing123	001	2020_May_12_1637	LDT	3.2.4	59.905804593379926	
80	0	80	0										1484.6121411939966	None	1482.6285836769966	None	p	1482.6285836769966	None		1.5144553870050004	testing123	001	2020_May_12_1637	LDT	3.2.4	59.905804593379926	
81	0	81	0	0	0	0	0	None	None	None	1484.645414144994	1486.6456257009995										testing123	001	2020_May_12_1637	LDT	3.2.4	59.905804593379926	
81	0	81	0	1	0	1	0	None	None	None	1487.1287579509954	1489.1289241310005										testing123	001	2020_May_12_1637	LDT	3.2.4	59.905804593379926	
81	0	81	0	2	0	2	0	None	None	None	1489.628940167997	1491.629111614995										testing123	001	2020_May_12_1637	LDT	3.2.4	59.905804593379926	
81	0	81	0	3	0	3	0	None	None	None	1492.129284458002	1494.1291440049972										testing123	001	2020_May_12_1637	LDT	3.2.4	59.905804593379926	
81	0	81	0	4	0	4	0	None	None	None	1494.6293179649947	1496.6292348419956										testing123	001	2020_May_12_1637	LDT	3.2.4	59.905804593379926	
81	0	81	0	5	0	5	0	None	None	None	1497.1289157150022	1499.129731765992										testing123	001	2020_May_12_1637	LDT	3.2.4	59.905804593379926	
81	0	81	0										1501.6132598159893	None	1499.6297179190005	None	None	1499.6297179190005	None			testing123	001	2020_May_12_1637	LDT	3.2.4	59.905804593379926	
82	0	82	0	0	0	0	0	w	None	None	1501.6462182419928	1503.6465669570025								0.9114504570025019		testing123	001	2020_May_12_1637	LDT	3.2.4	59.905804593379926	
82	0	82	0	1	0	1	0	w	None	None	1504.1296299879905	1506.1295856549987								0.364634757002932		testing123	001	2020_May_12_1637	LDT	3.2.4	59.905804593379926	
82	0	82	0	2	0	2	0	p	None	None	1506.6303041029896	1508.6301356329932								0.35282450998784043		testing123	001	2020_May_12_1637	LDT	3.2.4	59.905804593379926	
82	0	82	0	3	0	3	0	w	None	None	1509.1297304390027	1511.1298761630023								0.449283676003688		testing123	001	2020_May_12_1637	LDT	3.2.4	59.905804593379926	
82	0	82	0	4	0	4	0	p	None	None	1511.6303265609895	1513.6301035490033								0.6475584260042524		testing123	001	2020_May_12_1637	LDT	3.2.4	59.905804593379926	
82	0	82	0	5	0	5	0	p	None	None	1514.1300667769974	1516.1302345559961								0.4234311059990432		testing123	001	2020_May_12_1637	LDT	3.2.4	59.905804593379926	
82	0	82	0										1518.6141934780026	None	1516.6307896999933	None	p	1516.6307896999933	None		1.438543406999088	testing123	001	2020_May_12_1637	LDT	3.2.4	59.905804593379926	
83	0	83	0	0	0	0	0	p	None	None	1518.6476449429902	1520.6478524019913								0.673736770011601		testing123	001	2020_May_12_1637	LDT	3.2.4	59.905804593379926	
83	0	83	0	1	0	1	0	p	None	None	1521.1145044680015	1523.114498889001								0.4336697739927331		testing123	001	2020_May_12_1637	LDT	3.2.4	59.905804593379926	
83	0	83	0	2	0	2	0	p	None	None	1523.6146659279912	1525.614972948999								0.44143253499350976		testing123	001	2020_May_12_1637	LDT	3.2.4	59.905804593379926	
83	0	83	0	3	0	3	0	p	None	None	1526.1146355759993	1528.1150896909967								0.3483056990080513		testing123	001	2020_May_12_1637	LDT	3.2.4	59.905804593379926	
83	0	83	0	4	0	4	0	w	None	None	1528.6149767099996	1530.615364001991								0.34679185099957976		testing123	001	2020_May_12_1637	LDT	3.2.4	59.905804593379926	
83	0	83	0	5	0	5	0	w	None	None	1531.1151062629942	1533.1148489509942								0.3365446429961594		testing123	001	2020_May_12_1637	LDT	3.2.4	59.905804593379926	
83	0	83	0	6	0	6	0	w	None	None	1533.614873901999	1535.6152501189936								0.4106076389871305		testing123	001	2020_May_12_1637	LDT	3.2.4	59.905804593379926	
83	0	83	0	7	0	7	0	w	None	None	1536.1158491230017	1538.1157261420012								0.5825065259996336		testing123	001	2020_May_12_1637	LDT	3.2.4	59.905804593379926	
83	0	83	0										1540.598674858993	None	1538.6156835629954	None	None	1538.6156835629954	None			testing123	001	2020_May_12_1637	LDT	3.2.4	59.905804593379926	
84	0	84	0	0	0	0	0	w	None	None	1540.632523711989	1542.6326241539937								0.6775160390097881		testing123	001	2020_May_12_1637	LDT	3.2.4	59.905804593379926	
84	0	84	0	1	0	1	0	None	None	None	1543.1160351729923	1545.1161529429955										testing123	001	2020_May_12_1637	LDT	3.2.4	59.905804593379926	
84	0	84	0	2	0	2	0	None	None	None	1545.616222140001	1547.6161884850007										testing123	001	2020_May_12_1637	LDT	3.2.4	59.905804593379926	
84	0	84	0	3	0	3	0	None	None	None	1548.1162709409982	1550.1158340769907										testing123	001	2020_May_12_1637	LDT	3.2.4	59.905804593379926	
84	0	84	0	4	0	4	0	None	None	None	1550.6163292249985	1552.616704547996										testing123	001	2020_May_12_1637	LDT	3.2.4	59.905804593379926	
84	0	84	0										1555.1003977810033	None	1553.1166179720021	None	None	1553.1166179720021	None			testing123	001	2020_May_12_1637	LDT	3.2.4	59.905804593379926	
85	0	85	0	0	0	0	0	None	None	None	1555.1331185079907	1557.133844527998										testing123	001	2020_May_12_1637	LDT	3.2.4	59.905804593379926	
85	0	85	0	1	0	1	0	p	None	None	1557.6169653079996	1559.6171002939955								0.807702728008735		testing123	001	2020_May_12_1637	LDT	3.2.4	59.905804593379926	
85	0	85	0	2	0	2	0	None	None	None	1560.1171041609923	1562.1172963189892										testing123	001	2020_May_12_1637	LDT	3.2.4	59.905804593379926	
85	0	85	0	3	0	3	0	None	None	None	1562.617340479992	1564.6173943039903										testing123	001	2020_May_12_1637	LDT	3.2.4	59.905804593379926	
85	0	85	0	4	0	4	0	None	None	None	1565.1175729639945	1567.117770316996										testing123	001	2020_May_12_1637	LDT	3.2.4	59.905804593379926	
85	0	85	0	5	0	5	0	None	None	None	1567.6175799810007	1569.6330125520035										testing123	001	2020_May_12_1637	LDT	3.2.4	59.905804593379926	
85	0	85	0	6	0	6	0	None	None	None	1570.1162992530008	1572.1165723250015										testing123	001	2020_May_12_1637	LDT	3.2.4	59.905804593379926	
85	0	85	0										1574.6005490020034	None	1572.6163110350026	None	None	1572.6163110350026	None			testing123	001	2020_May_12_1637	LDT	3.2.4	59.905804593379926	
86	0	86	0	0	0	0	0	None	None	None	1574.6168017000018	1576.616859442991										testing123	001	2020_May_12_1637	LDT	3.2.4	59.905804593379926	
86	0	86	0	1	0	1	0	None	None	None	1577.1180748729967	1579.1183045279904										testing123	001	2020_May_12_1637	LDT	3.2.4	59.905804593379926	
86	0	86	0	2	0	2	0	None	None	None	1579.6184730480018	1581.6185547069908										testing123	001	2020_May_12_1637	LDT	3.2.4	59.905804593379926	
86	0	86	0	3	0	3	0	None	None	None	1582.1188467789907	1584.1189652309986										testing123	001	2020_May_12_1637	LDT	3.2.4	59.905804593379926	
86	0	86	0	4	0	4	0	None	None	None	1584.618826965001	1586.6187369219988										testing123	001	2020_May_12_1637	LDT	3.2.4	59.905804593379926	
86	0	86	0										1589.102644573999	None	1587.1191682770004	None	None	1587.1191682770004	None			testing123	001	2020_May_12_1637	LDT	3.2.4	59.905804593379926	
87	0	87	0	0	0	0	0	None	None	None	1589.1359248789959	1591.1361027029925										testing123	001	2020_May_12_1637	LDT	3.2.4	59.905804593379926	
87	0	87	0	1	0	1	0	None	None	None	1591.619480569003	1593.6194536230032										testing123	001	2020_May_12_1637	LDT	3.2.4	59.905804593379926	
87	0	87	0	2	0	2	0	None	None	None	1594.1197724569938	1596.1200373409956										testing123	001	2020_May_12_1637	LDT	3.2.4	59.905804593379926	
87	0	87	0	3	0	3	0	None	None	None	1596.6194425540016	1598.6197635419958										testing123	001	2020_May_12_1637	LDT	3.2.4	59.905804593379926	
87	0	87	0	4	0	4	0	None	None	None	1599.1200153289974	1601.1201626389957										testing123	001	2020_May_12_1637	LDT	3.2.4	59.905804593379926	
87	0	87	0	5	0	5	0	None	None	None	1601.6202528709982	1603.6202246119938										testing123	001	2020_May_12_1637	LDT	3.2.4	59.905804593379926	
87	0	87	0	6	0	6	0	None	1606.1038469479972	None	1604.1203174849943	1606.1203736129974										testing123	001	2020_May_12_1637	LDT	3.2.4	59.905804593379926	
87	0	87	0										1608.6037663939933	None	1606.620480357	None	None	1606.620480357	None			testing123	001	2020_May_12_1637	LDT	3.2.4	59.905804593379926	
88	0	88	0	0	0	0	0	None	None	None	1608.6372511999944	1610.6362254209962										testing123	001	2020_May_12_1637	LDT	3.2.4	59.905804593379926	
88	0	88	0	1	0	1	0	None	None	None	1611.120056846994	1613.120778846991										testing123	001	2020_May_12_1637	LDT	3.2.4	59.905804593379926	
88	0	88	0	2	0	2	0	None	None	None	1613.620960139	1615.621091848996										testing123	001	2020_May_12_1637	LDT	3.2.4	59.905804593379926	
88	0	88	0	3	0	3	0	None	None	None	1616.1210633430019	1618.121179911992										testing123	001	2020_May_12_1637	LDT	3.2.4	59.905804593379926	
88	0	88	0	4	0	4	0	None	None	None	1618.6211762439925	1620.621376893003										testing123	001	2020_May_12_1637	LDT	3.2.4	59.905804593379926	
88	0	88	0	5	0	5	0	None	None	None	1621.1213281910022	1623.120739688995										testing123	001	2020_May_12_1637	LDT	3.2.4	59.905804593379926	
88	0	88	0	6	0	6	0	None	None	None	1623.621488150995	1625.6216008509946										testing123	001	2020_May_12_1637	LDT	3.2.4	59.905804593379926	
88	0	88	0										1628.1051942780032	None	1626.1217019339965	None	None	1626.1217019339965	None			testing123	001	2020_May_12_1637	LDT	3.2.4	59.905804593379926	
89	0	89	0	0	0	0	0	None	None	None	1628.1374469479924	1630.1386639289994										testing123	001	2020_May_12_1637	LDT	3.2.4	59.905804593379926	
89	0	89	0	1	0	1	0	None	None	None	1630.621942124999	1632.6224356969906										testing123	001	2020_May_12_1637	LDT	3.2.4	59.905804593379926	
89	0	89	0	2	0	2	0	None	None	None	1633.1222299899964	1635.1225334109913										testing123	001	2020_May_12_1637	LDT	3.2.4	59.905804593379926	
89	0	89	0	3	0	3	0	None	None	None	1635.622093605998	1637.6223930409906										testing123	001	2020_May_12_1637	LDT	3.2.4	59.905804593379926	
89	0	89	0	4	0	4	0	None	None	None	1638.1225103239994	1640.1226365649927										testing123	001	2020_May_12_1637	LDT	3.2.4	59.905804593379926	
89	0	89	0	5	0	5	0	None	None	None	1640.6225793359918	1642.6228707089904										testing123	001	2020_May_12_1637	LDT	3.2.4	59.905804593379926	
89	0	89	0	6	0	6	0	None	None	None	1643.1228687550029	1645.1231503309973										testing123	001	2020_May_12_1637	LDT	3.2.4	59.905804593379926	
89	0	89	0	7	0	7	0	None	1647.606489822996	None	1645.622987883995	1647.6232420789893										testing123	001	2020_May_12_1637	LDT	3.2.4	59.905804593379926	
89	0	89	0										1650.1066492359969	None	1648.1229318949918	None	None	1648.1229318949918	None			testing123	001	2020_May_12_1637	LDT	3.2.4	59.905804593379926	
90	0	90	0	0	0	0	0	None	None	None	1650.1400080780004	1652.1403035319963										testing123	001	2020_May_12_1637	LDT	3.2.4	59.905804593379926	
90	0	90	0	1	0	1	0	None	None	None	1652.6233806730015	1654.6235615979967										testing123	001	2020_May_12_1637	LDT	3.2.4	59.905804593379926	
90	0	90	0	2	0	2	0	None	None	None	1655.1237367330032	1657.123670121										testing123	001	2020_May_12_1637	LDT	3.2.4	59.905804593379926	
90	0	90	0	3	0	3	0	None	None	None	1657.6238946840022	1659.6242813900026										testing123	001	2020_May_12_1637	LDT	3.2.4	59.905804593379926	
90	0	90	0	4	0	4	0	None	None	None	1660.1239514889894	1662.1241187019914										testing123	001	2020_May_12_1637	LDT	3.2.4	59.905804593379926	
90	0	90	0	5	0	5	0	None	None	None	1662.6241977699974	1664.6245322689938										testing123	001	2020_May_12_1637	LDT	3.2.4	59.905804593379926	
90	0	90	0	6	0	6	0	None	None	None	1665.124509575995	1667.1246006470028										testing123	001	2020_May_12_1637	LDT	3.2.4	59.905804593379926	
